trial_nr	onset	event_type	phase	response	nr_frames	subject	block	signal_present	signal_orientation	signal_opacity	correct	miniblock	blinkDuringTrial	RT	trial	confidence	key	RT_   0	onset_abs	duration
0	224.41007900238037	blockStart	0	-1	2118.0	01	0.0	0.0	0.0	0.0	-1.0	0.0	0.0	-1.0	0.0	-1.0			238.6593770980835	56.03275513648987
0	280.44283413887024	baseline_window	1	-1	57.0	01	0.0	0.0	0.0	0.0	-1.0	0.0	0.0	-1.0	0.0	-1.0			294.69213223457336	1.5083668231964111
0	281.95120096206665	stimulus_window	2	-1	6.0	01	0.0	0.0	0.0	0.0	-1.0	0.0	1.0	-1.0	0.0	-1.0			296.2004990577698	0.19999313354492188
0	282.1511940956116	response_window	3	-1	46.0	01	0.0	0.0	0.0	0.0	-1.0	0.0	1.0	-1.0	0.0	-1.0			296.4004921913147	1.2081470489501953
0	283.35934114456177	feedback_window	4	-1	9.0	01	0.0	0.0	0.0	0.0	-1.0	0.0	1.0	-1.0	0.0	-1.0			297.6086392402649	0.30002498626708984
0	283.65936613082886	ITI_window	5	-1	19.0	01	0.0	0.0	0.0	0.0	-1.0	0.0	1.0	-1.0	0.0	-1.0			297.908664226532	0.6336269378662109
1	284.29299306869507	blockStart	0	-1	0.0	01	0.0	0.0	0.0	0.0	-1.0	0.0	0.0	-1.0	1.0	-1.0			298.5422911643982	0.002501964569091797
1	284.29549503326416	baseline_window	1	-1	18.0	01	0.0	0.0	0.0	0.0	-1.0	0.0	0.0	-1.0	1.0	-1.0			298.5447931289673	0.48898887634277344
1	284.78448390960693	stimulus_window	2	-1	6.0	01	0.0	0.0	0.0	0.0	-1.0	0.0	1.0	-1.0	1.0	-1.0			299.03378200531006	0.1913301944732666
1	284.9758141040802	response_window	3	-1	43.0	01	0.0	0.0	0.0	0.0	-1.0	0.0	1.0	-1.0	1.0	-1.0			299.2251121997833	1.208698034286499
1	286.1845121383667	feedback_window	4	-1	9.0	01	0.0	0.0	0.0	0.0	-1.0	0.0	1.0	-1.0	1.0	-1.0			300.4338102340698	0.3001258373260498
1	286.48463797569275	ITI_window	5	-1	24.0	01	0.0	0.0	0.0	0.0	-1.0	0.0	1.0	-1.0	1.0	-1.0			300.7339360713959	0.7661480903625488
2	287.2507860660553	blockStart	0	-1	0.0	01	0.0	0.0	1.0	0.0	-1.0	0.0	0.0	-1.0	2.0	-1.0			301.5000841617584	0.002585887908935547
2	287.25337195396423	baseline_window	1	-1	19.0	01	0.0	0.0	1.0	0.0	-1.0	0.0	0.0	-1.0	2.0	-1.0			301.50267004966736	0.4889981746673584
2	287.7423701286316	stimulus_window	2	-1	7.0	01	0.0	0.0	1.0	0.0	-1.0	0.0	1.0	-1.0	2.0	-1.0			301.9916682243347	0.20023679733276367
2	287.94260692596436	response_window	3	-1	7.0	01	0.0	0.0	1.0	0.0	-1.0	0.0	1.0	-1.0	2.0	-1.0			302.1919050216675	0.19188714027404785
2	288.0959300994873	response	3	0	7						1.0			0.3535599708557129		1.0	1		302.34522819519043	
2	288.1344940662384	feedback_window	4	0	10.0	01	0.0	0.0	1.0	0.0	1.0	0.0	1.0		2.0	1.0		0.3535599708557129	302.3837921619415	0.3078620433807373
2	288.44235610961914	ITI_window	5	0	30.0	01	0.0	0.0	1.0	0.0	1.0	0.0	1.0		2.0	1.0		0.3535599708557129	302.69165420532227	0.8334150314331055
3	289.27577114105225	blockStart	0	-1	0.0	01	0.0	0.0	1.0	0.0	-1.0	0.0	0.0	-1.0	3.0	-1.0			303.52506923675537	0.0026388168334960938
3	289.27840995788574	baseline_window	1	-1	18.0	01	0.0	0.0	1.0	0.0	-1.0	0.0	0.0	-1.0	3.0	-1.0			303.52770805358887	0.4727439880371094
3	289.75115394592285	stimulus_window	2	-1	6.0	01	0.0	0.0	1.0	0.0	-1.0	0.0	1.0	-1.0	3.0	-1.0			304.000452041626	0.19122910499572754
3	289.9423830509186	response_window	3	-1	9.0	01	0.0	0.0	1.0	0.0	-1.0	0.0	1.0	-1.0	3.0	-1.0			304.1916811466217	0.24210786819458008
3	290.14620208740234	response	3	0	9						1.0			0.3950481414794922		1.0	1		304.39550018310547	
3	290.18449091911316	feedback_window	4	0	10.0	01	0.0	0.0	1.0	0.0	1.0	0.0	1.0		3.0	1.0		0.3950481414794922	304.4337890148163	0.3082141876220703
3	290.49270510673523	ITI_window	5	0	21.0	01	0.0	0.0	1.0	0.0	1.0	0.0	1.0		3.0	1.0		0.3950481414794922	304.74200320243835	0.6415379047393799
4	291.1342430114746	blockStart	0	-1	0.0	01	0.0	1.0	0.0	0.010000000000000002	-1.0	0.0	0.0	-1.0	4.0	-1.0			305.38354110717773	0.002501964569091797
4	291.1367449760437	baseline_window	1	-1	19.0	01	0.0	1.0	0.0	0.010000000000000002	-1.0	0.0	0.0	-1.0	4.0	-1.0			305.3860430717468	0.4977149963378906
4	291.6344599723816	stimulus_window	2	-1	6.0	01	0.0	1.0	0.0	0.010000000000000002	-1.0	0.0	0.0	-1.0	4.0	-1.0			305.8837580680847	0.19178414344787598
4	291.82624411582947	response_window	3	-1	14.0	01	0.0	1.0	0.0	0.010000000000000002	-1.0	0.0	1.0	-1.0	4.0	-1.0			306.0755422115326	0.36637091636657715
4	292.1550829410553	response	3	0	14						0.0			0.520622968673706		0.0	3		306.4043810367584	
4	292.19261503219604	feedback_window	4	0	11.0	01	0.0	1.0	0.0	0.010000000000000002	0.0	0.0	1.0	0.520622968673706	4.0	0.0			306.44191312789917	0.308182954788208
4	292.50079798698425	ITI_window	5	0	22.0	01	0.0	1.0	0.0	0.010000000000000002	0.0	0.0	1.0	0.520622968673706	4.0	0.0			306.7500960826874	0.6416089534759521
5	293.1424069404602	blockStart	0	-1	0.0	01	0.0	0.0	1.0	0.0	-1.0	0.0	0.0	-1.0	5.0	-1.0			307.39170503616333	0.002498149871826172
5	293.14490509033203	baseline_window	1	-1	19.0	01	0.0	0.0	1.0	0.0	-1.0	0.0	0.0	-1.0	5.0	-1.0			307.39420318603516	0.48078203201293945
5	293.62568712234497	stimulus_window	2	-1	7.0	01	0.0	0.0	1.0	0.0	-1.0	0.0	0.0	-1.0	5.0	-1.0			307.8749852180481	0.20000600814819336
5	293.82569313049316	response_window	3	-1	8.0	01	0.0	0.0	1.0	0.0	-1.0	0.0	0.0	-1.0	5.0	-1.0			308.0749912261963	0.2169017791748047
5	294.0042390823364	response	3	0	8						1.0			0.3785519599914551		0.0	3		308.25353717803955	
5	294.04259490966797	feedback_window	4	0	11.0	01	0.0	0.0	1.0	0.0	1.0	0.0	0.0	0.3785519599914551	5.0	0.0			308.2918930053711	0.3251800537109375
5	294.3677749633789	ITI_window	5	0	30.0	01	0.0	0.0	1.0	0.0	1.0	0.0	0.0	0.3785519599914551	5.0	0.0			308.61707305908203	0.8418750762939453
6	295.20965003967285	blockStart	0	-1	0.0	01	0.0	1.0	1.0	0.015000000000000003	-1.0	0.0	0.0	-1.0	6.0	-1.0			309.458948135376	0.002526998519897461
6	295.21217703819275	baseline_window	1	-1	18.0	01	0.0	1.0	1.0	0.015000000000000003	-1.0	0.0	0.0	-1.0	6.0	-1.0			309.4614751338959	0.48044300079345703
6	295.6926200389862	stimulus_window	2	-1	6.0	01	0.0	1.0	1.0	0.015000000000000003	-1.0	0.0	0.0	-1.0	6.0	-1.0			309.94191813468933	0.19147491455078125
6	295.884094953537	response_window	3	-1	7.0	01	0.0	1.0	1.0	0.015000000000000003	-1.0	0.0	0.0	-1.0	6.0	-1.0			310.1333930492401	0.20032906532287598
6	296.0377690792084	response	3	0	7						0.0			0.34514904022216797		1.0	1		310.2870671749115	
6	296.08442401885986	feedback_window	4	0	11.0	01	0.0	1.0	1.0	0.015000000000000003	0.0	0.0	0.0		6.0	1.0		0.34514904022216797	310.333722114563	0.3166770935058594
6	296.4011011123657	ITI_window	5	0	23.0	01	0.0	1.0	1.0	0.015000000000000003	0.0	0.0	0.0		6.0	1.0		0.34514904022216797	310.65039920806885	0.641258955001831
7	297.04236006736755	blockStart	0	-1	0.0	01	0.0	1.0	1.0	0.030000000000000006	-1.0	0.0	0.0	-1.0	7.0	-1.0			311.2916581630707	0.002618074417114258
7	297.04497814178467	baseline_window	1	-1	19.0	01	0.0	1.0	1.0	0.030000000000000006	-1.0	0.0	0.0	-1.0	7.0	-1.0			311.2942762374878	0.4894528388977051
7	297.5344309806824	stimulus_window	2	-1	6.0	01	0.0	1.0	1.0	0.030000000000000006	-1.0	0.0	0.0	-1.0	7.0	-1.0			311.7837290763855	0.1915140151977539
7	297.7259449958801	response_window	3	-1	13.0	01	0.0	1.0	1.0	0.030000000000000006	-1.0	0.0	0.0	-1.0	7.0	-1.0			311.97524309158325	0.341778039932251
7	298.0291941165924	response	3	0	13						0.0			0.4947631359100342		1.0	1		312.27849221229553	
7	298.0677230358124	feedback_window	4	0	11.0	01	0.0	1.0	1.0	0.030000000000000006	0.0	0.0	0.0		7.0	1.0		0.4947631359100342	312.3170211315155	0.3166959285736084
7	298.384418964386	ITI_window	5	0	34.0	01	0.0	1.0	1.0	0.030000000000000006	0.0	0.0	0.0		7.0	1.0		0.4947631359100342	312.6337170600891	0.9745371341705322
8	299.3589560985565	blockStart	0	-1	0.0	01	0.0	0.0	0.0	0.0	-1.0	0.0	0.0	-1.0	8.0	-1.0			313.60825419425964	0.0025780200958251953
8	299.36153411865234	baseline_window	1	-1	19.0	01	0.0	0.0	0.0	0.0	-1.0	0.0	0.0	-1.0	8.0	-1.0			313.61083221435547	0.49742698669433594
8	299.8589611053467	stimulus_window	2	-1	7.0	01	0.0	0.0	0.0	0.0	-1.0	0.0	1.0	-1.0	8.0	-1.0			314.1082592010498	0.19223499298095703
8	300.05119609832764	response_window	3	-1	20.0	01	0.0	0.0	0.0	0.0	-1.0	0.0	1.0	-1.0	8.0	-1.0			314.30049419403076	0.5498449802398682
8	300.56294798851013	response	3	0	20						1.0			0.7039868831634521		1.0	1		314.81224608421326	
8	300.6010410785675	feedback_window	4	0	10.0	01	0.0	0.0	0.0	0.0	1.0	0.0	1.0		8.0	1.0		0.7039868831634521	314.85033917427063	0.3333709239959717
8	300.9344120025635	ITI_window	5	0	23.0	01	0.0	0.0	0.0	0.0	1.0	0.0	1.0		8.0	1.0		0.7039868831634521	315.1837100982666	0.766538143157959
9	301.70095014572144	blockStart	0	-1	0.0	01	0.0	1.0	1.0	0.030000000000000006	-1.0	0.0	0.0	-1.0	9.0	-1.0			315.95024824142456	0.0025658607482910156
9	301.7035160064697	baseline_window	1	-1	17.0	01	0.0	1.0	1.0	0.030000000000000006	-1.0	0.0	0.0	-1.0	9.0	-1.0			315.95281410217285	0.472398042678833
9	302.17591404914856	stimulus_window	2	-1	6.0	01	0.0	1.0	1.0	0.030000000000000006	-1.0	0.0	0.0	-1.0	9.0	-1.0			316.4252121448517	0.19997286796569824
9	302.37588691711426	response_window	3	-1	27.0	01	0.0	1.0	1.0	0.030000000000000006	-1.0	0.0	1.0	-1.0	9.0	-1.0			316.6251850128174	0.725161075592041
9	303.06273794174194	response	3	0	27						0.0			0.8868238925933838		0.0	3		317.31203603744507	
9	303.1010479927063	feedback_window	4	0	11.0	01	0.0	1.0	1.0	0.030000000000000006	0.0	0.0	1.0	0.8868238925933838	9.0	0.0			317.3503460884094	0.3162980079650879
9	303.4173460006714	ITI_window	5	0	34.0	01	0.0	1.0	1.0	0.030000000000000006	0.0	0.0	1.0	0.8868238925933838	9.0	0.0			317.6666440963745	0.9834620952606201
10	304.400808095932	blockStart	0	-1	0.0	01	0.0	1.0	0.0	0.005	-1.0	0.0	0.0	-1.0	10.0	-1.0			318.65010619163513	0.0025658607482910156
10	304.4033739566803	baseline_window	1	-1	19.0	01	0.0	1.0	0.0	0.005	-1.0	0.0	0.0	-1.0	10.0	-1.0			318.6526720523834	0.48915910720825195
10	304.89253306388855	stimulus_window	2	-1	6.0	01	0.0	1.0	0.0	0.005	-1.0	0.0	1.0	-1.0	10.0	-1.0			319.1418311595917	0.19148707389831543
10	305.08402013778687	response_window	3	-1	23.0	01	0.0	1.0	0.0	0.005	-1.0	0.0	1.0	-1.0	10.0	-1.0			319.33331823349	0.5918209552764893
10	305.63776111602783	response	3	0	23						0.0			0.7452280521392822		0.0	3		319.88705921173096	
10	305.67584109306335	feedback_window	4	0	11.0	01	0.0	1.0	0.0	0.005	0.0	0.0	1.0	0.7452280521392822	10.0	0.0			319.9251391887665	0.2997109889984131
10	305.97555208206177	ITI_window	5	0	19.0	01	0.0	1.0	0.0	0.005	0.0	0.0	1.0	0.7452280521392822	10.0	0.0			320.2248501777649	0.6334428787231445
11	306.6089949607849	blockStart	0	-1	0.0	01	0.0	1.0	1.0	0.015000000000000003	-1.0	0.0	0.0	-1.0	11.0	-1.0			320.85829305648804	0.0025560855865478516
11	306.61155104637146	baseline_window	1	-1	17.0	01	0.0	1.0	1.0	0.015000000000000003	-1.0	0.0	0.0	-1.0	11.0	-1.0			320.8608491420746	0.47279787063598633
11	307.08434891700745	stimulus_window	2	-1	6.0	01	0.0	1.0	1.0	0.015000000000000003	-1.0	0.0	1.0	-1.0	11.0	-1.0			321.33364701271057	0.19120121002197266
11	307.2755501270294	response_window	3	-1	23.0	01	0.0	1.0	1.0	0.015000000000000003	-1.0	0.0	1.0	-1.0	11.0	-1.0			321.52484822273254	0.6002798080444336
11	307.8377299308777	response	3	0	23						0.0			0.7533810138702393		0.0	3		322.0870280265808	
11	307.87582993507385	feedback_window	4	0	10.0	01	0.0	1.0	1.0	0.015000000000000003	0.0	0.0	1.0	0.7533810138702393	11.0	0.0			322.125128030777	0.29973316192626953
11	308.1755630970001	ITI_window	5	0	25.0	01	0.0	1.0	1.0	0.015000000000000003	0.0	0.0	1.0	0.7533810138702393	11.0	0.0			322.42486119270325	0.7000758647918701
12	308.875638961792	blockStart	0	-1	0.0	01	0.0	1.0	1.0	0.020000000000000004	-1.0	0.0	0.0	-1.0	12.0	-1.0			323.1249370574951	0.002451181411743164
12	308.87809014320374	baseline_window	1	-1	19.0	01	0.0	1.0	1.0	0.020000000000000004	-1.0	0.0	0.0	-1.0	12.0	-1.0			323.12738823890686	0.4895777702331543
12	309.3676679134369	stimulus_window	2	-1	6.0	01	0.0	1.0	1.0	0.020000000000000004	-1.0	0.0	1.0	-1.0	12.0	-1.0			323.61696600914	0.20000505447387695
12	309.56767296791077	response_window	3	-1	22.0	01	0.0	1.0	1.0	0.020000000000000004	-1.0	0.0	1.0	-1.0	12.0	-1.0			323.8169710636139	0.5666439533233643
12	310.10088992118835	response	3	0	22						0.0			0.7332220077514648		0.0	3		324.3501880168915	
12	310.13431692123413	feedback_window	4	0	11.0	01	0.0	1.0	1.0	0.020000000000000004	0.0	0.0	1.0	0.7332220077514648	12.0	0.0			324.38361501693726	0.3078281879425049
12	310.44214510917664	ITI_window	5	0	30.0	01	0.0	1.0	1.0	0.020000000000000004	0.0	0.0	1.0	0.7332220077514648	12.0	0.0			324.69144320487976	0.8666930198669434
13	311.3088381290436	blockStart	0	-1	0.0	01	0.0	1.0	1.0	0.05	-1.0	0.0	0.0	-1.0	13.0	-1.0			325.5581362247467	0.002496004104614258
13	311.3113341331482	baseline_window	1	-1	19.0	01	0.0	1.0	1.0	0.05	-1.0	0.0	0.0	-1.0	13.0	-1.0			325.5606322288513	0.48967480659484863
13	311.80100893974304	stimulus_window	2	-1	6.0	01	0.0	1.0	1.0	0.05	-1.0	0.0	1.0	-1.0	13.0	-1.0			326.05030703544617	0.19165706634521484
13	311.99266600608826	response_window	3	-1	15.0	01	0.0	1.0	1.0	0.05	-1.0	0.0	1.0	-1.0	13.0	-1.0			326.2419641017914	0.3916590213775635
13	312.3458049297333	response	3	1	15						1.0			0.5447959899902344		0.0	4		326.5951030254364	
13	312.3843250274658	feedback_window	4	1	10.0	01	0.0	1.0	1.0	0.05	1.0	0.0	1.0	0.5447959899902344	13.0	0.0			326.63362312316895	0.2996349334716797
13	312.6839599609375	ITI_window	5	1	27.0	01	0.0	1.0	1.0	0.05	1.0	0.0	1.0	0.5447959899902344	13.0	0.0			326.9332580566406	0.7502391338348389
14	313.43419909477234	blockStart	0	-1	0.0	01	0.0	0.0	0.0	0.0	-1.0	0.0	0.0	-1.0	14.0	-1.0			327.68349719047546	0.0024628639221191406
14	313.43666195869446	baseline_window	1	-1	18.0	01	0.0	0.0	0.0	0.0	-1.0	0.0	0.0	-1.0	14.0	-1.0			327.6859600543976	0.480942964553833
14	313.9176049232483	stimulus_window	2	-1	6.0	01	0.0	0.0	0.0	0.0	-1.0	0.0	1.0	-1.0	14.0	-1.0			328.1669030189514	0.19998812675476074
14	314.11759305000305	response_window	3	-1	29.0	01	0.0	0.0	0.0	0.0	-1.0	0.0	1.0	-1.0	14.0	-1.0			328.3668911457062	0.8000349998474121
14	314.8712019920349	response	3	0	29						1.0			0.9535970687866211		0.0	3		329.12050008773804	
14	314.91762804985046	feedback_window	4	0	10.0	01	0.0	0.0	0.0	0.0	1.0	0.0	1.0	0.9535970687866211	14.0	0.0			329.1669261455536	0.33330702781677246
14	315.25093507766724	ITI_window	5	0	25.0	01	0.0	0.0	0.0	0.0	1.0	0.0	1.0	0.9535970687866211	14.0	0.0			329.50023317337036	0.8330788612365723
15	316.0840139389038	blockStart	0	-1	0.0	01	0.0	1.0	0.0	0.04	-1.0	0.0	0.0	-1.0	15.0	-1.0			330.33331203460693	0.0025320053100585938
15	316.08654594421387	baseline_window	1	-1	18.0	01	0.0	1.0	0.0	0.04	-1.0	0.0	0.0	-1.0	15.0	-1.0			330.335844039917	0.4892711639404297
15	316.5758171081543	stimulus_window	2	-1	6.0	01	0.0	1.0	0.0	0.04	-1.0	0.0	1.0	-1.0	15.0	-1.0			330.8251152038574	0.1999678611755371
15	316.77578496932983	response_window	3	-1	24.0	01	0.0	1.0	0.0	0.04	-1.0	0.0	1.0	-1.0	15.0	-1.0			331.02508306503296	0.6333191394805908
15	317.3709499835968	response	3	1	24						1.0			0.7951328754425049		1.0	2		331.6202480792999	
15	317.4091041088104	feedback_window	4	1	10.0	01	0.0	1.0	0.0	0.04	1.0	0.0	1.0	0.7951328754425049	15.0	1.0			331.65840220451355	0.3333549499511719
15	317.7424590587616	ITI_window	5	1	19.0	01	0.0	1.0	0.0	0.04	1.0	0.0	1.0	0.7951328754425049	15.0	1.0			331.9917571544647	0.6082649230957031
16	318.3507239818573	blockStart	0	-1	0.0	01	0.0	1.0	0.0	0.020000000000000004	-1.0	0.0	0.0	-1.0	16.0	-1.0			332.6000220775604	0.0026099681854248047
16	318.3533339500427	baseline_window	1	-1	17.0	01	0.0	1.0	0.0	0.020000000000000004	-1.0	0.0	0.0	-1.0	16.0	-1.0			332.60263204574585	0.4724311828613281
16	318.82576513290405	stimulus_window	2	-1	6.0	01	0.0	1.0	0.0	0.020000000000000004	-1.0	0.0	1.0	-1.0	16.0	-1.0			333.0750632286072	0.19999480247497559
16	319.025759935379	response_window	3	-1	40.0	01	0.0	1.0	0.0	0.020000000000000004	-1.0	0.0	1.0	-1.0	16.0	-1.0			333.27505803108215	1.1251451969146729
16	320.11776995658875	response	3	1	40						1.0			1.2920048236846924		0.0	4		334.36706805229187	
16	320.1509051322937	feedback_window	4	1	10.0	01	0.0	1.0	0.0	0.020000000000000004	1.0	0.0	1.0	1.2920048236846924	16.0	0.0			334.4002032279968	0.3333098888397217
16	320.4842150211334	ITI_window	5	1	29.0	01	0.0	1.0	0.0	0.020000000000000004	1.0	0.0	1.0	1.2920048236846924	16.0	0.0			334.73351311683655	0.966594934463501
17	321.4508099555969	blockStart	0	-1	0.0	01	0.0	0.0	0.0	0.0	-1.0	0.0	0.0	-1.0	17.0	-1.0			335.70010805130005	0.0025300979614257812
17	321.45334005355835	baseline_window	1	-1	17.0	01	0.0	0.0	0.0	0.0	-1.0	0.0	0.0	-1.0	17.0	-1.0			335.7026381492615	0.4642188549041748
17	321.9175589084625	stimulus_window	2	-1	6.0	01	0.0	0.0	0.0	0.0	-1.0	0.0	1.0	-1.0	17.0	-1.0			336.16685700416565	0.19120121002197266
17	322.1087601184845	response_window	3	-1	36.0	01	0.0	0.0	0.0	0.0	-1.0	0.0	1.0	-1.0	17.0	-1.0			336.3580582141876	1.0254390239715576
17	323.1009180545807	response	3	1	36						0.0			1.183359146118164		0.0	4		337.3502161502838	
17	323.13419914245605	feedback_window	4	1	10.0	01	0.0	0.0	0.0	0.0	0.0	0.0	1.0	1.183359146118164	17.0	0.0			337.3834972381592	0.3333289623260498
17	323.4675281047821	ITI_window	5	1	25.0	01	0.0	0.0	0.0	0.0	0.0	0.0	1.0	1.183359146118164	17.0	0.0			337.71682620048523	0.8332459926605225
18	324.3007740974426	blockStart	0	-1	0.0	01	0.0	1.0	0.0	0.005	-1.0	0.0	0.0	-1.0	18.0	-1.0			338.55007219314575	0.002519845962524414
18	324.30329394340515	baseline_window	1	-1	17.0	01	0.0	1.0	0.0	0.005	-1.0	0.0	0.0	-1.0	18.0	-1.0			338.5525920391083	0.48087406158447266
18	324.7841680049896	stimulus_window	2	-1	6.0	01	0.0	1.0	0.0	0.005	-1.0	0.0	1.0	-1.0	18.0	-1.0			339.03346610069275	0.1999969482421875
18	324.9841649532318	response_window	3	-1	17.0	01	0.0	1.0	0.0	0.005	-1.0	0.0	1.0	-1.0	18.0	-1.0			339.23346304893494	0.4833700656890869
18	325.4215340614319	response	3	0	17						0.0			0.6373660564422607		0.0	3		339.670832157135	
18	325.4675350189209	feedback_window	4	0	10.0	01	0.0	1.0	0.0	0.005	0.0	0.0	1.0	0.6373660564422607	18.0	0.0			339.716833114624	0.3333139419555664
18	325.80084896087646	ITI_window	5	0	26.0	01	0.0	1.0	0.0	0.005	0.0	0.0	1.0	0.6373660564422607	18.0	0.0			340.0501470565796	0.8746089935302734
19	326.67545795440674	blockStart	0	-1	0.0	01	0.0	1.0	1.0	0.04	-1.0	0.0	0.0	-1.0	19.0	-1.0			340.92475605010986	0.0025110244750976562
19	326.67796897888184	baseline_window	1	-1	18.0	01	0.0	1.0	1.0	0.04	-1.0	0.0	0.0	-1.0	19.0	-1.0			340.92726707458496	0.49774599075317383
19	327.175714969635	stimulus_window	2	-1	6.0	01	0.0	1.0	1.0	0.04	-1.0	0.0	1.0	-1.0	19.0	-1.0			341.42501306533813	0.19995594024658203
19	327.3756709098816	response_window	3	-1	19.0	01	0.0	1.0	1.0	0.04	-1.0	0.0	1.0	-1.0	19.0	-1.0			341.6249690055847	0.5418930053710938
19	327.87928104400635	response	3	1	19						1.0			0.7035660743713379		1.0	2		342.1285791397095	
19	327.9175639152527	feedback_window	4	1	10.0	01	0.0	1.0	1.0	0.04	1.0	0.0	1.0	0.7035660743713379	19.0	1.0			342.1668620109558	0.33330416679382324
19	328.2508680820465	ITI_window	5	1	20.0	01	0.0	1.0	1.0	0.04	1.0	0.0	1.0	0.7035660743713379	19.0	1.0			342.50016617774963	0.6663758754730225
20	328.91724395751953	blockStart	0	-1	0.0	01	0.0	1.0	0.0	0.020000000000000004	-1.0	0.0	0.0	-1.0	20.0	-1.0			343.16654205322266	0.002582073211669922
20	328.9198260307312	baseline_window	1	-1	18.0	01	0.0	1.0	0.0	0.020000000000000004	-1.0	0.0	0.0	-1.0	20.0	-1.0			343.1691241264343	0.4725179672241211
20	329.3923439979553	stimulus_window	2	-1	6.0	01	0.0	1.0	0.0	0.020000000000000004	-1.0	0.0	1.0	-1.0	20.0	-1.0			343.64164209365845	0.19187092781066895
20	329.584214925766	response_window	3	-1	35.0	01	0.0	1.0	0.0	0.020000000000000004	-1.0	0.0	1.0	-1.0	20.0	-1.0			343.8335130214691	0.9833052158355713
20	330.53437209129333	response	3	1	35						1.0			1.1420280933380127		0.0	4		344.78367018699646	
20	330.56752014160156	feedback_window	4	1	10.0	01	0.0	1.0	0.0	0.020000000000000004	1.0	0.0	1.0	1.1420280933380127	20.0	0.0			344.8168182373047	0.3333098888397217
20	330.9008300304413	ITI_window	5	1	28.0	01	0.0	1.0	0.0	0.020000000000000004	1.0	0.0	1.0	1.1420280933380127	20.0	0.0			345.1501281261444	0.9412710666656494
21	331.84210109710693	blockStart	0	-1	0.0	01	0.0	1.0	0.0	0.045000000000000005	-1.0	0.0	0.0	-1.0	21.0	-1.0			346.09139919281006	0.0025298595428466797
21	331.8446309566498	baseline_window	1	-1	18.0	01	0.0	1.0	0.0	0.045000000000000005	-1.0	0.0	0.0	-1.0	21.0	-1.0			346.0939290523529	0.4729001522064209
21	332.3175311088562	stimulus_window	2	-1	6.0	01	0.0	1.0	0.0	0.045000000000000005	-1.0	0.0	1.0	-1.0	21.0	-1.0			346.5668292045593	0.19167184829711914
21	332.5092029571533	response_window	3	-1	15.0	01	0.0	1.0	0.0	0.045000000000000005	-1.0	0.0	1.0	-1.0	21.0	-1.0			346.75850105285645	0.4163811206817627
21	332.89249992370605	response	3	1	15						1.0			0.5749688148498535		0.0	4		347.1417980194092	
21	332.9255840778351	feedback_window	4	1	10.0	01	0.0	1.0	0.0	0.045000000000000005	1.0	0.0	1.0	0.5749688148498535	21.0	0.0			347.1748821735382	0.33338093757629395
21	333.2589650154114	ITI_window	5	1	24.0	01	0.0	1.0	0.0	0.045000000000000005	1.0	0.0	1.0	0.5749688148498535	21.0	0.0			347.5082631111145	0.7831239700317383
22	334.0420889854431	blockStart	0	-1	0.0	01	0.0	0.0	1.0	0.0	-1.0	0.0	0.0	-1.0	22.0	-1.0			348.29138708114624	0.0025179386138916016
22	334.044606924057	baseline_window	1	-1	18.0	01	0.0	0.0	1.0	0.0	-1.0	0.0	0.0	-1.0	22.0	-1.0			348.29390501976013	0.49767613410949707
22	334.5422830581665	stimulus_window	2	-1	6.0	01	0.0	0.0	1.0	0.0	-1.0	0.0	1.0	-1.0	22.0	-1.0			348.79158115386963	0.20000195503234863
22	334.74228501319885	response_window	3	-1	19.0	01	0.0	0.0	1.0	0.0	-1.0	0.0	1.0	-1.0	22.0	-1.0			348.991583108902	0.5333800315856934
22	335.23801612854004	response	3	0	19						1.0			0.6957330703735352		0.0	3		349.48731422424316	
22	335.27566504478455	feedback_window	4	0	10.0	01	0.0	0.0	1.0	0.0	1.0	0.0	1.0	0.6957330703735352	22.0	0.0			349.52496314048767	0.32514190673828125
22	335.6008069515228	ITI_window	5	0	25.0	01	0.0	0.0	1.0	0.0	1.0	0.0	1.0	0.6957330703735352	22.0	0.0			349.85010504722595	0.8331451416015625
23	336.4339520931244	blockStart	0	-1	0.0	01	0.0	1.0	1.0	0.04	-1.0	0.0	0.0	-1.0	23.0	-1.0			350.6832501888275	0.0025179386138916016
23	336.4364700317383	baseline_window	1	-1	18.0	01	0.0	1.0	1.0	0.04	-1.0	0.0	0.0	-1.0	23.0	-1.0			350.6857681274414	0.4976630210876465
23	336.9341330528259	stimulus_window	2	-1	6.0	01	0.0	1.0	1.0	0.04	-1.0	0.0	1.0	-1.0	23.0	-1.0			351.18343114852905	0.19153594970703125
23	337.12566900253296	response_window	3	-1	16.0	01	0.0	1.0	1.0	0.04	-1.0	0.0	1.0	-1.0	23.0	-1.0			351.3749670982361	0.4250760078430176
23	337.5127820968628	response	3	1	16						1.0			0.5786490440368652		0.0	4		351.7620801925659	
23	337.550745010376	feedback_window	4	1	10.0	01	0.0	1.0	1.0	0.04	1.0	0.0	1.0	0.5786490440368652	23.0	0.0			351.8000431060791	0.3333461284637451
23	337.8840911388397	ITI_window	5	1	26.0	01	0.0	1.0	1.0	0.04	1.0	0.0	1.0	0.5786490440368652	23.0	0.0			352.13338923454285	0.8664388656616211
24	338.75053000450134	blockStart	0	-1	0.0	01	0.0	1.0	1.0	0.045000000000000005	-1.0	0.0	0.0	-1.0	24.0	-1.0			352.99982810020447	0.002568960189819336
24	338.75309896469116	baseline_window	1	-1	17.0	01	0.0	1.0	1.0	0.045000000000000005	-1.0	0.0	0.0	-1.0	24.0	-1.0			353.0023970603943	0.4810140132904053
24	339.23411297798157	stimulus_window	2	-1	6.0	01	0.0	1.0	1.0	0.045000000000000005	-1.0	0.0	1.0	-1.0	24.0	-1.0			353.4834110736847	0.19988799095153809
24	339.4340009689331	response_window	3	-1	13.0	01	0.0	1.0	1.0	0.045000000000000005	-1.0	0.0	1.0	-1.0	24.0	-1.0			353.68329906463623	0.3749091625213623
24	339.77180910110474	response	3	1	13						1.0			0.537696123123169		0.0	4		354.02110719680786	
24	339.80891013145447	feedback_window	4	1	10.0	01	0.0	1.0	1.0	0.045000000000000005	1.0	0.0	1.0	0.537696123123169	24.0	0.0			354.0582082271576	0.3333117961883545
24	340.1422219276428	ITI_window	5	1	27.0	01	0.0	1.0	1.0	0.045000000000000005	1.0	0.0	1.0	0.537696123123169	24.0	0.0			354.39152002334595	0.874946117401123
25	341.01716804504395	blockStart	0	-1	0.0	01	0.0	1.0	1.0	0.035	-1.0	0.0	0.0	-1.0	25.0	-1.0			355.26646614074707	0.002585887908935547
25	341.0197539329529	baseline_window	1	-1	17.0	01	0.0	1.0	1.0	0.035	-1.0	0.0	0.0	-1.0	25.0	-1.0			355.269052028656	0.48917603492736816
25	341.50892996788025	stimulus_window	2	-1	6.0	01	0.0	1.0	1.0	0.035	-1.0	0.0	1.0	-1.0	25.0	-1.0			355.7582280635834	0.19196605682373047
25	341.700896024704	response_window	3	-1	8.0	01	0.0	1.0	1.0	0.035	-1.0	0.0	1.0	-1.0	25.0	-1.0			355.9501941204071	0.2331678867340088
25	341.8964641094208	response	3	1	8						1.0			0.38753414154052734		0.0	4		356.1457622051239	
25	341.934063911438	feedback_window	4	1	10.0	01	0.0	1.0	1.0	0.035	1.0	0.0	1.0	0.38753414154052734	25.0	0.0			356.1833620071411	0.33336520195007324
25	342.26742911338806	ITI_window	5	1	29.0	01	0.0	1.0	1.0	0.035	1.0	0.0	1.0	0.38753414154052734	25.0	0.0			356.5167272090912	0.966717004776001
26	343.23414611816406	blockStart	0	-1	0.0	01	0.0	1.0	1.0	0.015000000000000003	-1.0	0.0	0.0	-1.0	26.0	-1.0			357.4834442138672	0.0025398731231689453
26	343.23668599128723	baseline_window	1	-1	17.0	01	0.0	1.0	1.0	0.015000000000000003	-1.0	0.0	0.0	-1.0	26.0	-1.0			357.48598408699036	0.4807591438293457
26	343.7174451351166	stimulus_window	2	-1	6.0	01	0.0	1.0	1.0	0.015000000000000003	-1.0	0.0	1.0	-1.0	26.0	-1.0			357.9667432308197	0.20327496528625488
26	343.92072010040283	response_window	3	-1	17.0	01	0.0	1.0	1.0	0.015000000000000003	-1.0	0.0	1.0	-1.0	26.0	-1.0			358.17001819610596	0.5214829444885254
26	344.3956229686737	response	3	1	17						1.0			0.6781778335571289		0.0	4		358.64492106437683	
26	344.44220304489136	feedback_window	4	1	10.0	01	0.0	1.0	1.0	0.015000000000000003	1.0	0.0	1.0	0.6781778335571289	26.0	0.0			358.6915011405945	0.33332395553588867
26	344.77552700042725	ITI_window	5	1	22.0	01	0.0	1.0	1.0	0.015000000000000003	1.0	0.0	1.0	0.6781778335571289	26.0	0.0			359.02482509613037	0.7164409160614014
27	345.49196791648865	blockStart	0	-1	0.0	01	0.0	0.0	0.0	0.0	-1.0	0.0	0.0	-1.0	27.0	-1.0			359.7412660121918	0.002596139907836914
27	345.4945640563965	baseline_window	1	-1	19.0	01	0.0	0.0	0.0	0.0	-1.0	0.0	0.0	-1.0	27.0	-1.0			359.7438621520996	0.4973409175872803
27	345.99190497398376	stimulus_window	2	-1	7.0	01	0.0	0.0	0.0	0.0	-1.0	0.0	1.0	-1.0	27.0	-1.0			360.2412030696869	0.20001006126403809
27	346.1919150352478	response_window	3	-1	47.0	01	0.0	0.0	0.0	0.0	-1.0	0.0	1.0	-1.0	27.0	-1.0			360.4412131309509	1.1917390823364258
27	347.38365411758423	feedback_window	4	-1	9.0	01	0.0	0.0	0.0	0.0	-1.0	0.0	1.0	-1.0	27.0	-1.0			361.63295221328735	0.3003709316253662
27	347.6840250492096	ITI_window	5	-1	23.0	01	0.0	0.0	0.0	0.0	-1.0	0.0	1.0	-1.0	27.0	-1.0			361.9333231449127	0.7745530605316162
28	348.4585781097412	blockStart	0	-1	0.0	01	0.0	0.0	1.0	0.0	-1.0	0.0	0.0	-1.0	28.0	-1.0			362.70787620544434	0.002549886703491211
28	348.4611279964447	baseline_window	1	-1	17.0	01	0.0	0.0	1.0	0.0	-1.0	0.0	0.0	-1.0	28.0	-1.0			362.7104260921478	0.4810209274291992
28	348.9421489238739	stimulus_window	2	-1	6.0	01	0.0	0.0	1.0	0.0	-1.0	0.0	1.0	-1.0	28.0	-1.0			363.191447019577	0.19989919662475586
28	349.14204812049866	response_window	3	-1	24.0	01	0.0	0.0	1.0	0.0	-1.0	0.0	1.0	-1.0	28.0	-1.0			363.3913462162018	0.7086257934570312
28	349.8175449371338	response	3	0	24						1.0			0.8753960132598877		0.0	3		364.0668430328369	
28	349.8506739139557	feedback_window	4	0	10.0	01	0.0	0.0	1.0	0.0	1.0	0.0	1.0	0.8753960132598877	28.0	0.0			364.0999720096588	0.333280086517334
28	350.183954000473	ITI_window	5	0	29.0	01	0.0	0.0	1.0	0.0	1.0	0.0	1.0	0.8753960132598877	28.0	0.0			364.43325209617615	0.9666159152984619
29	351.1505699157715	blockStart	0	-1	0.0	01	0.0	0.0	0.0	0.0	-1.0	0.0	0.0	-1.0	29.0	-1.0			365.3998680114746	0.002534151077270508
29	351.15310406684875	baseline_window	1	-1	17.0	01	0.0	0.0	0.0	0.0	-1.0	0.0	0.0	-1.0	29.0	-1.0			365.4024021625519	0.4890310764312744
29	351.64213514328003	stimulus_window	2	-1	6.0	01	0.0	0.0	0.0	0.0	-1.0	0.0	1.0	-1.0	29.0	-1.0			365.89143323898315	0.20002079010009766
29	351.8421559333801	response_window	3	-1	39.0	01	0.0	0.0	0.0	0.0	-1.0	0.0	1.0	-1.0	29.0	-1.0			366.09145402908325	1.1833240985870361
29	353.02548003196716	feedback_window	4	-1	9.0	01	0.0	0.0	0.0	0.0	-1.0	0.0	1.0	-1.0	29.0	-1.0			367.2747781276703	0.29996705055236816
29	353.32544708251953	ITI_window	5	-1	22.0	01	0.0	0.0	0.0	0.0	-1.0	0.0	1.0	-1.0	29.0	-1.0			367.57474517822266	0.7330858707427979
30	354.05853295326233	blockStart	0	-1	0.0	01	0.0	0.0	0.0	0.0	-1.0	0.0	0.0	-1.0	30.0	-1.0			368.30783104896545	0.0026390552520751953
30	354.0611720085144	baseline_window	1	-1	18.0	01	0.0	0.0	0.0	0.0	-1.0	0.0	0.0	-1.0	30.0	-1.0			368.31047010421753	0.48946499824523926
30	354.55063700675964	stimulus_window	2	-1	6.0	01	0.0	0.0	0.0	0.0	-1.0	0.0	1.0	-1.0	30.0	-1.0			368.79993510246277	0.19147205352783203
30	354.7421090602875	response_window	3	-1	45.0	01	0.0	0.0	0.0	0.0	-1.0	0.0	1.0	-1.0	30.0	-1.0			368.9914071559906	1.2085199356079102
30	355.9506289958954	feedback_window	4	-1	9.0	01	0.0	0.0	0.0	0.0	-1.0	0.0	1.0	-1.0	30.0	-1.0			370.1999270915985	0.3000330924987793
30	356.25066208839417	ITI_window	5	-1	29.0	01	0.0	0.0	0.0	0.0	-1.0	0.0	1.0	-1.0	30.0	-1.0			370.4999601840973	0.9663748741149902
31	357.21703696250916	blockStart	0	-1	0.0	01	0.0	1.0	1.0	0.05	-1.0	0.0	0.0	-1.0	31.0	-1.0			371.4663350582123	0.0025420188903808594
31	357.21957898139954	baseline_window	1	-1	18.0	01	0.0	1.0	1.0	0.05	-1.0	0.0	0.0	-1.0	31.0	-1.0			371.46887707710266	0.4892251491546631
31	357.7088041305542	stimulus_window	2	-1	6.0	01	0.0	1.0	1.0	0.05	-1.0	0.0	1.0	-1.0	31.0	-1.0			371.9581022262573	0.1999349594116211
31	357.9087390899658	response_window	3	-1	13.0	01	0.0	1.0	1.0	0.05	-1.0	0.0	1.0	-1.0	31.0	-1.0			372.15803718566895	0.3500239849090576
31	358.2124650478363	response	3	1	13						1.0			0.5036609172821045		0.0	4		372.46176314353943	
31	358.2587630748749	feedback_window	4	1	10.0	01	0.0	1.0	1.0	0.05	1.0	0.0	1.0	0.5036609172821045	31.0	0.0			372.508061170578	0.33333802223205566
31	358.59210109710693	ITI_window	5	1	26.0	01	0.0	1.0	1.0	0.05	1.0	0.0	1.0	0.5036609172821045	31.0	0.0			372.84139919281006	0.866447925567627
32	359.45854902267456	blockStart	0	-1	0.0	01	0.0	1.0	1.0	0.035	-1.0	0.0	0.0	-1.0	32.0	-1.0			373.7078471183777	0.0026009082794189453
32	359.461149930954	baseline_window	1	-1	19.0	01	0.0	1.0	1.0	0.035	-1.0	0.0	0.0	-1.0	32.0	-1.0			373.7104480266571	0.4976341724395752
32	359.95878410339355	stimulus_window	2	-1	6.0	01	0.0	1.0	1.0	0.035	-1.0	0.0	1.0	-1.0	32.0	-1.0			374.2080821990967	0.1914808750152588
32	360.1502649784088	response_window	3	-1	27.0	01	0.0	1.0	1.0	0.035	-1.0	0.0	1.0	-1.0	32.0	-1.0			374.39956307411194	0.7170219421386719
32	360.8212890625	response	3	1	27						1.0			0.8625049591064453		0.0	4		375.0705871582031	
32	360.8672869205475	feedback_window	4	1	10.0	01	0.0	1.0	1.0	0.035	1.0	0.0	1.0	0.8625049591064453	32.0	0.0			375.1165850162506	0.3332791328430176
32	361.2005660533905	ITI_window	5	1	20.0	01	0.0	1.0	1.0	0.035	1.0	0.0	1.0	0.8625049591064453	32.0	0.0			375.4498641490936	0.6663999557495117
33	361.86696600914	blockStart	0	-1	0.0	01	0.0	0.0	1.0	0.0	-1.0	0.0	0.0	-1.0	33.0	-1.0			376.11626410484314	0.0026009082794189453
33	361.86956691741943	baseline_window	1	-1	18.0	01	0.0	0.0	1.0	0.0	-1.0	0.0	0.0	-1.0	33.0	-1.0			376.11886501312256	0.48918604850769043
33	362.3587529659271	stimulus_window	2	-1	6.0	01	0.0	0.0	1.0	0.0	-1.0	0.0	1.0	-1.0	33.0	-1.0			376.60805106163025	0.19173312187194824
33	362.5504860877991	response_window	3	-1	41.0	01	0.0	0.0	1.0	0.0	-1.0	0.0	1.0	-1.0	33.0	-1.0			376.7997841835022	1.2082970142364502
33	363.7587831020355	feedback_window	4	-1	9.0	01	0.0	0.0	1.0	0.0	-1.0	0.0	1.0	-1.0	33.0	-1.0			378.00808119773865	0.2999458312988281
33	364.05872893333435	ITI_window	5	-1	24.0	01	0.0	0.0	1.0	0.0	-1.0	0.0	1.0	-1.0	33.0	-1.0			378.3080270290375	0.7997369766235352
34	364.8584659099579	blockStart	0	-1	0.0	01	0.0	0.0	0.0	0.0	-1.0	0.0	0.0	-1.0	34.0	-1.0			379.107764005661	0.0026750564575195312
34	364.8611409664154	baseline_window	1	-1	18.0	01	0.0	0.0	0.0	0.0	-1.0	0.0	0.0	-1.0	34.0	-1.0			379.11043906211853	0.5060641765594482
34	365.36720514297485	stimulus_window	2	-1	6.0	01	0.0	0.0	0.0	0.0	-1.0	0.0	0.0	-1.0	34.0	-1.0			379.616503238678	0.19124984741210938
34	365.55845499038696	response_window	3	-1	43.0	01	0.0	0.0	0.0	0.0	-1.0	0.0	0.0	-1.0	34.0	-1.0			379.8077530860901	1.2087390422821045
34	366.76719403266907	feedback_window	4	-1	9.0	01	0.0	0.0	0.0	0.0	-1.0	0.0	0.0	-1.0	34.0	-1.0			381.0164921283722	0.30004191398620605
34	367.0672359466553	ITI_window	5	-1	30.0	01	0.0	0.0	0.0	0.0	-1.0	0.0	0.0	-1.0	34.0	-1.0			381.3165340423584	0.9997820854187012
35	368.067018032074	blockStart	0	-1	0.0	01	0.0	1.0	0.0	0.005	-1.0	0.0	0.0	-1.0	35.0	-1.0			382.3163161277771	0.002640962600708008
35	368.0696589946747	baseline_window	1	-1	16.0	01	0.0	1.0	0.0	0.005	-1.0	0.0	0.0	-1.0	35.0	-1.0			382.3189570903778	0.4641609191894531
35	368.53381991386414	stimulus_window	2	-1	6.0	01	0.0	1.0	0.0	0.005	-1.0	0.0	0.0	-1.0	35.0	-1.0			382.78311800956726	0.19995522499084473
35	368.733775138855	response_window	3	-1	43.0	01	0.0	1.0	0.0	0.005	-1.0	0.0	0.0	-1.0	35.0	-1.0			382.9830732345581	1.2082149982452393
35	369.9419901371002	feedback_window	4	-1	9.0	01	0.0	1.0	0.0	0.005	-1.0	0.0	0.0	-1.0	35.0	-1.0			384.19128823280334	0.2999849319458008
35	370.241975069046	ITI_window	5	-1	24.0	01	0.0	1.0	0.0	0.005	-1.0	0.0	0.0	-1.0	35.0	-1.0			384.49127316474915	0.7997958660125732
36	371.0417709350586	blockStart	0	-1	0.0	01	0.0	0.0	0.0	0.0	-1.0	0.0	0.0	-1.0	36.0	-1.0			385.2910690307617	0.002543210983276367
36	371.04431414604187	baseline_window	1	-1	16.0	01	0.0	0.0	0.0	0.0	-1.0	0.0	0.0	-1.0	36.0	-1.0			385.293612241745	0.48070693016052246
36	371.5250210762024	stimulus_window	2	-1	7.0	01	0.0	0.0	0.0	0.0	-1.0	0.0	1.0	-1.0	36.0	-1.0			385.7743191719055	0.20044183731079102
36	371.7254629135132	response_window	3	-1	23.0	01	0.0	0.0	0.0	0.0	-1.0	0.0	1.0	-1.0	36.0	-1.0			385.9747610092163	0.5913660526275635
36	372.2836949825287	response	3	1	23						0.0			0.758673906326294		0.0	4		386.5329930782318	
36	372.31682896614075	feedback_window	4	1	10.0	01	0.0	0.0	0.0	0.0	0.0	0.0	1.0	0.758673906326294	36.0	0.0			386.5661270618439	0.3334791660308838
36	372.65030813217163	ITI_window	5	1	31.0	01	0.0	0.0	0.0	0.0	0.0	0.0	1.0	0.758673906326294	36.0	0.0			386.89960622787476	0.9914629459381104
37	373.64177107810974	blockStart	0	-1	0.0	01	0.0	1.0	1.0	0.045000000000000005	-1.0	0.0	0.0	-1.0	37.0	-1.0			387.89106917381287	0.002568960189819336
37	373.64434003829956	baseline_window	1	-1	17.0	01	0.0	1.0	1.0	0.045000000000000005	-1.0	0.0	0.0	-1.0	37.0	-1.0			387.8936381340027	0.46435093879699707
37	374.10869097709656	stimulus_window	2	-1	6.0	01	0.0	1.0	1.0	0.045000000000000005	-1.0	0.0	0.0	-1.0	37.0	-1.0			388.3579890727997	0.1917121410369873
37	374.30040311813354	response_window	3	-1	7.0	01	0.0	1.0	1.0	0.045000000000000005	-1.0	0.0	0.0	-1.0	37.0	-1.0			388.54970121383667	0.19155383110046387
37	374.45454502105713	response	3	0	7						0.0			0.3458540439605713		0.0	3		388.70384311676025	
37	374.491956949234	feedback_window	4	0	10.0	01	0.0	1.0	1.0	0.045000000000000005	0.0	0.0	0.0	0.3458540439605713	37.0	0.0			388.74125504493713	0.33333706855773926
37	374.82529401779175	ITI_window	5	0	27.0	01	0.0	1.0	1.0	0.045000000000000005	0.0	0.0	0.0	0.3458540439605713	37.0	0.0			389.0745921134949	0.8498179912567139
38	375.67511200904846	blockStart	0	-1	0.0	01	0.0	1.0	1.0	0.035	-1.0	0.0	0.0	-1.0	38.0	-1.0			389.9244101047516	0.0025360584259033203
38	375.67764806747437	baseline_window	1	-1	19.0	01	0.0	1.0	1.0	0.035	-1.0	0.0	0.0	-1.0	38.0	-1.0			389.9269461631775	0.48920392990112305
38	376.1668519973755	stimulus_window	2	-1	6.0	01	0.0	1.0	1.0	0.035	-1.0	0.0	1.0	-1.0	38.0	-1.0			390.4161500930786	0.19165611267089844
38	376.3585081100464	response_window	3	-1	11.0	01	0.0	1.0	1.0	0.035	-1.0	0.0	1.0	-1.0	38.0	-1.0			390.6078062057495	0.29163289070129395
38	376.6121349334717	response	3	1	11						1.0			0.4452829360961914		0.0	4		390.8614330291748	
38	376.6501410007477	feedback_window	4	1	10.0	01	0.0	1.0	1.0	0.035	1.0	0.0	1.0	0.4452829360961914	38.0	0.0			390.8994390964508	0.3166530132293701
38	376.96679401397705	ITI_window	5	1	23.0	01	0.0	1.0	1.0	0.035	1.0	0.0	1.0	0.4452829360961914	38.0	0.0			391.2160921096802	0.7337100505828857
39	377.70050406455994	blockStart	0	-1	0.0	01	0.0	0.0	0.0	0.0	-1.0	0.0	0.0	-1.0	39.0	-1.0			391.94980216026306	0.0025730133056640625
39	377.7030770778656	baseline_window	1	-1	17.0	01	0.0	0.0	0.0	0.0	-1.0	0.0	0.0	-1.0	39.0	-1.0			391.9523751735687	0.4806790351867676
39	378.18375611305237	stimulus_window	2	-1	6.0	01	0.0	0.0	0.0	0.0	-1.0	0.0	1.0	-1.0	39.0	-1.0			392.4330542087555	0.19174981117248535
39	378.37550592422485	response_window	3	-1	18.0	01	0.0	0.0	0.0	0.0	-1.0	0.0	1.0	-1.0	39.0	-1.0			392.624804019928	0.5082449913024902
39	378.85068106651306	response	3	1	18						0.0			0.6669249534606934		0.0	4		393.0999791622162	
39	378.88375091552734	feedback_window	4	1	10.0	01	0.0	0.0	0.0	0.0	0.0	0.0	1.0	0.6669249534606934	39.0	0.0			393.13304901123047	0.33336710929870605
39	379.21711802482605	ITI_window	5	1	22.0	01	0.0	0.0	0.0	0.0	0.0	0.0	1.0	0.6669249534606934	39.0	0.0			393.4664161205292	0.7163949012756348
40	379.9335129261017	blockStart	0	-1	0.0	01	0.0	1.0	0.0	0.015000000000000003	-1.0	0.0	0.0	-1.0	40.0	-1.0			394.1828110218048	0.0025930404663085938
40	379.936105966568	baseline_window	1	-1	18.0	01	0.0	1.0	0.0	0.015000000000000003	-1.0	0.0	0.0	-1.0	40.0	-1.0			394.1854040622711	0.49764299392700195
40	380.433748960495	stimulus_window	2	-1	6.0	01	0.0	1.0	0.0	0.015000000000000003	-1.0	0.0	1.0	-1.0	40.0	-1.0			394.6830470561981	0.19979095458984375
40	380.63353991508484	response_window	3	-1	14.0	01	0.0	1.0	0.0	0.015000000000000003	-1.0	0.0	1.0	-1.0	40.0	-1.0			394.88283801078796	0.4001960754394531
40	380.99604511260986	response	3	1	14						1.0			0.5622961521148682		0.0	4		395.245343208313	
40	381.0337359905243	feedback_window	4	1	10.0	01	0.0	1.0	0.0	0.015000000000000003	1.0	0.0	1.0	0.5622961521148682	40.0	0.0			395.2830340862274	0.33333706855773926
40	381.36707305908203	ITI_window	5	1	29.0	01	0.0	1.0	0.0	0.015000000000000003	1.0	0.0	1.0	0.5622961521148682	40.0	0.0			395.61637115478516	0.9665689468383789
41	382.3336420059204	blockStart	0	-1	0.0	01	0.0	0.0	0.0	0.0	-1.0	0.0	0.0	-1.0	41.0	-1.0			396.58294010162354	0.0025451183319091797
41	382.3361871242523	baseline_window	1	-1	18.0	01	0.0	0.0	0.0	0.0	-1.0	0.0	0.0	-1.0	41.0	-1.0			396.58548521995544	0.5057318210601807
41	382.8419189453125	stimulus_window	2	-1	6.0	01	0.0	0.0	0.0	0.0	-1.0	0.0	1.0	-1.0	41.0	-1.0			397.0912170410156	0.19181513786315918
41	383.03373408317566	response_window	3	-1	27.0	01	0.0	0.0	0.0	0.0	-1.0	0.0	1.0	-1.0	41.0	-1.0			397.2830321788788	0.9000399112701416
41	383.88881611824036	response	3	0	27						1.0			1.0468971729278564		1.0	1		398.1381142139435	
41	383.9337739944458	feedback_window	4	0	11.0	01	0.0	0.0	0.0	0.0	1.0	0.0	1.0		41.0	1.0		1.0468971729278564	398.1830720901489	0.31662607192993164
41	384.25040006637573	ITI_window	5	0	22.0	01	0.0	0.0	0.0	0.0	1.0	0.0	1.0		41.0	1.0		1.0468971729278564	398.49969816207886	0.6498799324035645
42	384.9002799987793	blockStart	0	-1	0.0	01	0.0	0.0	1.0	0.0	-1.0	0.0	0.0	-1.0	42.0	-1.0			399.1495780944824	0.0026900768280029297
42	384.9029700756073	baseline_window	1	-1	19.0	01	0.0	0.0	1.0	0.0	-1.0	0.0	0.0	-1.0	42.0	-1.0			399.1522681713104	0.4974100589752197
42	385.4003801345825	stimulus_window	2	-1	6.0	01	0.0	0.0	1.0	0.0	-1.0	0.0	1.0	-1.0	42.0	-1.0			399.64967823028564	0.18301677703857422
42	385.5833969116211	response_window	3	-1	18.0	01	0.0	0.0	1.0	0.0	-1.0	0.0	1.0	-1.0	42.0	-1.0			399.8326950073242	0.48364901542663574
42	386.02064990997314	response	3	0	18						1.0			0.620269775390625		1.0	1		400.26994800567627	
42	386.06704592704773	feedback_window	4	0	10.0	01	0.0	0.0	1.0	0.0	1.0	0.0	1.0		42.0	1.0		0.620269775390625	400.31634402275085	0.3248422145843506
42	386.3918881416321	ITI_window	5	0	28.0	01	0.0	0.0	1.0	0.0	1.0	0.0	1.0		42.0	1.0		0.620269775390625	400.6411862373352	0.9331049919128418
43	387.3249931335449	blockStart	0	-1	0.0	01	0.0	0.0	0.0	0.0	-1.0	0.0	0.0	-1.0	43.0	-1.0			401.57429122924805	0.0026178359985351562
43	387.32761096954346	baseline_window	1	-1	18.0	01	0.0	0.0	0.0	0.0	-1.0	0.0	0.0	-1.0	43.0	-1.0			401.5769090652466	0.4806029796600342
43	387.8082139492035	stimulus_window	2	-1	7.0	01	0.0	0.0	0.0	0.0	-1.0	0.0	1.0	-1.0	43.0	-1.0			402.0575120449066	0.20895814895629883
43	388.0171720981598	response_window	3	-1	11.0	01	0.0	0.0	0.0	0.0	-1.0	0.0	1.0	-1.0	43.0	-1.0			402.2664701938629	0.29950594902038574
43	388.2793219089508	response	3	0	11						1.0			0.47110795974731445		1.0	1		402.52862000465393	
43	388.3166780471802	feedback_window	4	0	10.0	01	0.0	0.0	0.0	0.0	1.0	0.0	1.0		43.0	1.0		0.47110795974731445	402.5659761428833	0.3333730697631836
43	388.65005111694336	ITI_window	5	0	26.0	01	0.0	0.0	0.0	0.0	1.0	0.0	1.0		43.0	1.0		0.47110795974731445	402.8993492126465	0.8334178924560547
44	389.4834690093994	blockStart	0	-1	0.0	01	0.0	0.0	1.0	0.0	-1.0	0.0	0.0	-1.0	44.0	-1.0			403.73276710510254	0.002569913864135742
44	389.48603892326355	baseline_window	1	-1	18.0	01	0.0	0.0	1.0	0.0	-1.0	0.0	0.0	-1.0	44.0	-1.0			403.7353370189667	0.46399617195129395
44	389.95003509521484	stimulus_window	2	-1	7.0	01	0.0	0.0	1.0	0.0	-1.0	0.0	1.0	-1.0	44.0	-1.0			404.19933319091797	0.23366594314575195
44	390.1837010383606	response_window	3	-1	10.0	01	0.0	0.0	1.0	0.0	-1.0	0.0	1.0	-1.0	44.0	-1.0			404.4329991340637	0.2666330337524414
44	390.4116299152374	response	3	0	10						1.0			0.461594820022583		0.0	3		404.66092801094055	
44	390.45033407211304	feedback_window	4	0	11.0	01	0.0	0.0	1.0	0.0	1.0	0.0	1.0	0.461594820022583	44.0	0.0			404.69963216781616	0.3079040050506592
44	390.7582380771637	ITI_window	5	0	27.0	01	0.0	0.0	1.0	0.0	1.0	0.0	1.0	0.461594820022583	44.0	0.0			405.0075361728668	0.899993896484375
45	391.65823197364807	blockStart	0	-1	0.0	01	0.0	0.0	1.0	0.0	-1.0	0.0	0.0	-1.0	45.0	-1.0			405.9075300693512	0.002599000930786133
45	391.66083097457886	baseline_window	1	-1	18.0	01	0.0	0.0	1.0	0.0	-1.0	0.0	0.0	-1.0	45.0	-1.0			405.910129070282	0.49773502349853516
45	392.1585659980774	stimulus_window	2	-1	6.0	01	0.0	0.0	1.0	0.0	-1.0	0.0	0.0	-1.0	45.0	-1.0			406.4078640937805	0.19991707801818848
45	392.3584830760956	response_window	3	-1	21.0	01	0.0	0.0	1.0	0.0	-1.0	0.0	0.0	-1.0	45.0	-1.0			406.6077811717987	0.5751988887786865
45	392.89506101608276	response	3	0	21						1.0			0.7364950180053711		0.0	3		407.1443591117859	
45	392.93368196487427	feedback_window	4	0	11.0	01	0.0	0.0	1.0	0.0	1.0	0.0	0.0	0.7364950180053711	45.0	0.0			407.1829800605774	0.324782133102417
45	393.2584640979767	ITI_window	5	0	33.0	01	0.0	0.0	1.0	0.0	1.0	0.0	0.0	0.7364950180053711	45.0	0.0			407.5077621936798	0.9164829254150391
46	394.1749470233917	blockStart	0	-1	0.0	01	0.0	1.0	1.0	0.05	-1.0	0.0	0.0	-1.0	46.0	-1.0			408.42424511909485	0.0025129318237304688
46	394.17745995521545	baseline_window	1	-1	19.0	01	0.0	1.0	1.0	0.05	-1.0	0.0	0.0	-1.0	46.0	-1.0			408.4267580509186	0.49773216247558594
46	394.67519211769104	stimulus_window	2	-1	6.0	01	0.0	1.0	1.0	0.05	-1.0	0.0	0.0	-1.0	46.0	-1.0			408.92449021339417	0.17502880096435547
46	394.8502209186554	response_window	3	-1	18.0	01	0.0	1.0	1.0	0.05	-1.0	0.0	0.0	-1.0	46.0	-1.0			409.0995190143585	0.4833981990814209
46	395.2959449291229	response	3	1	18						1.0			0.6207528114318848		1.0	2		409.54524302482605	
46	395.3336191177368	feedback_window	4	1	10.0	01	0.0	1.0	1.0	0.05	1.0	0.0	0.0	0.6207528114318848	46.0	1.0			409.58291721343994	0.33336901664733887
46	395.66698813438416	ITI_window	5	1	29.0	01	0.0	1.0	1.0	0.05	1.0	0.0	0.0	0.6207528114318848	46.0	1.0			409.9162862300873	0.9665517807006836
47	396.63353991508484	blockStart	0	-1	0.0	01	0.0	1.0	1.0	0.025000000000000005	-1.0	0.0	0.0	-1.0	47.0	-1.0			410.88283801078796	0.0025320053100585938
47	396.6360719203949	baseline_window	1	-1	18.0	01	0.0	1.0	1.0	0.025000000000000005	-1.0	0.0	0.0	-1.0	47.0	-1.0			410.885370016098	0.49758005142211914
47	397.133651971817	stimulus_window	2	-1	6.0	01	0.0	1.0	1.0	0.025000000000000005	-1.0	0.0	0.0	-1.0	47.0	-1.0			411.38295006752014	0.19147300720214844
47	397.32512497901917	response_window	3	-1	26.0	01	0.0	1.0	1.0	0.025000000000000005	-1.0	0.0	0.0	-1.0	47.0	-1.0			411.5744230747223	0.7085580825805664
47	397.98744201660156	response	3	0	26						0.0			0.8537900447845459		0.0	3		412.2367401123047	
47	398.03368306159973	feedback_window	4	0	10.0	01	0.0	1.0	1.0	0.025000000000000005	0.0	0.0	0.0	0.8537900447845459	47.0	0.0			412.28298115730286	0.3332509994506836
47	398.3669340610504	ITI_window	5	0	28.0	01	0.0	1.0	1.0	0.025000000000000005	0.0	0.0	0.0	0.8537900447845459	47.0	0.0			412.61623215675354	0.9331190586090088
48	399.3000531196594	blockStart	0	-1	0.0	01	0.0	1.0	1.0	0.020000000000000004	-1.0	0.0	0.0	-1.0	48.0	-1.0			413.54935121536255	0.002633810043334961
48	399.30268692970276	baseline_window	1	-1	18.0	01	0.0	1.0	1.0	0.020000000000000004	-1.0	0.0	0.0	-1.0	48.0	-1.0			413.5519850254059	0.4891071319580078
48	399.79179406166077	stimulus_window	2	-1	6.0	01	0.0	1.0	1.0	0.020000000000000004	-1.0	0.0	0.0	-1.0	48.0	-1.0			414.0410921573639	0.19180703163146973
48	399.98360109329224	response_window	3	-1	17.0	01	0.0	1.0	1.0	0.020000000000000004	-1.0	0.0	0.0	-1.0	48.0	-1.0			414.23289918899536	0.4581780433654785
48	400.4038391113281	response	3	1	17						1.0			0.6120450496673584		0.0	4		414.65313720703125	
48	400.4417791366577	feedback_window	4	1	10.0	01	0.0	1.0	1.0	0.020000000000000004	1.0	0.0	0.0	0.6120450496673584	48.0	0.0			414.69107723236084	0.32515692710876465
48	400.7669360637665	ITI_window	5	1	25.0	01	0.0	1.0	1.0	0.020000000000000004	1.0	0.0	0.0	0.6120450496673584	48.0	0.0			415.0162341594696	0.791327953338623
49	401.5582640171051	blockStart	0	-1	0.0	01	0.0	0.0	1.0	0.0	-1.0	0.0	0.0	-1.0	49.0	-1.0			415.8075621128082	0.002593994140625
49	401.5608580112457	baseline_window	1	-1	18.0	01	0.0	0.0	1.0	0.0	-1.0	0.0	0.0	-1.0	49.0	-1.0			415.81015610694885	0.46393895149230957
49	402.02479696273804	stimulus_window	2	-1	7.0	01	0.0	0.0	1.0	0.0	-1.0	0.0	0.0	-1.0	49.0	-1.0			416.27409505844116	0.20850515365600586
49	402.23330211639404	response_window	3	-1	23.0	01	0.0	0.0	1.0	0.0	-1.0	0.0	0.0	-1.0	49.0	-1.0			416.48260021209717	0.5917630195617676
49	402.7865879535675	response	3	0	23						1.0			0.7617909908294678		0.0	3		417.03588604927063	
49	402.8250651359558	feedback_window	4	0	10.0	01	0.0	0.0	1.0	0.0	1.0	0.0	0.0	0.7617909908294678	49.0	0.0			417.07436323165894	0.3333718776702881
49	403.1584370136261	ITI_window	5	0	29.0	01	0.0	0.0	1.0	0.0	1.0	0.0	0.0	0.7617909908294678	49.0	0.0			417.4077351093292	0.9665329456329346
50	404.12496995925903	blockStart	0	-1	0.0	01	0.0	1.0	0.0	0.015000000000000003	-1.0	0.0	0.0	-1.0	50.0	-1.0			418.37426805496216	0.00269317626953125
50	404.12766313552856	baseline_window	1	-1	18.0	01	0.0	1.0	0.0	0.015000000000000003	-1.0	0.0	0.0	-1.0	50.0	-1.0			418.3769612312317	0.49744391441345215
50	404.625107049942	stimulus_window	2	-1	6.0	01	0.0	1.0	0.0	0.015000000000000003	-1.0	0.0	0.0	-1.0	50.0	-1.0			418.87440514564514	0.19145798683166504
50	404.8165650367737	response_window	3	-1	13.0	01	0.0	1.0	0.0	0.015000000000000003	-1.0	0.0	0.0	-1.0	50.0	-1.0			419.0658631324768	0.35846710205078125
50	405.13721203804016	response	3	1	13						1.0			0.5121049880981445		0.0	4		419.3865101337433	
50	405.17503213882446	feedback_window	4	1	10.0	01	0.0	1.0	0.0	0.015000000000000003	1.0	0.0	0.0	0.5121049880981445	50.0	0.0			419.4243302345276	0.33303284645080566
50	405.50806498527527	ITI_window	5	1	27.0	01	0.0	1.0	0.0	0.015000000000000003	1.0	0.0	0.0	0.5121049880981445	50.0	0.0			419.7573630809784	0.7585921287536621
51	406.26665711402893	blockStart	0	-1	0.0	01	0.0	1.0	0.0	0.035	-1.0	0.0	0.0	-1.0	51.0	-1.0			420.51595520973206	0.002627849578857422
51	406.2692849636078	baseline_window	1	-1	17.0	01	0.0	1.0	0.0	0.035	-1.0	0.0	0.0	-1.0	51.0	-1.0			420.5185830593109	0.47252917289733887
51	406.7418141365051	stimulus_window	2	-1	6.0	01	0.0	1.0	0.0	0.035	-1.0	0.0	0.0	-1.0	51.0	-1.0			420.99111223220825	0.19181394577026367
51	406.9336280822754	response_window	3	-1	17.0	01	0.0	1.0	0.0	0.035	-1.0	0.0	0.0	-1.0	51.0	-1.0			421.1829261779785	0.46659088134765625
51	407.3623011112213	response	3	1	17						1.0			0.6204869747161865		1.0	2		421.61159920692444	
51	407.40021896362305	feedback_window	4	1	10.0	01	0.0	1.0	0.0	0.035	1.0	0.0	1.0	0.6204869747161865	51.0	1.0			421.6495170593262	0.33345794677734375
51	407.7336769104004	ITI_window	5	1	29.0	01	0.0	1.0	0.0	0.035	1.0	0.0	1.0	0.6204869747161865	51.0	1.0			421.9829750061035	0.9664011001586914
52	408.7000780105591	blockStart	0	-1	0.0	01	0.0	0.0	0.0	0.0	-1.0	0.0	0.0	-1.0	52.0	-1.0			422.9493761062622	0.002607107162475586
52	408.70268511772156	baseline_window	1	-1	17.0	01	0.0	0.0	0.0	0.0	-1.0	0.0	0.0	-1.0	52.0	-1.0			422.9519832134247	0.46416592597961426
52	409.1668510437012	stimulus_window	2	-1	6.0	01	0.0	0.0	0.0	0.0	-1.0	0.0	0.0	-1.0	52.0	-1.0			423.4161491394043	0.19146394729614258
52	409.3583149909973	response_window	3	-1	9.0	01	0.0	0.0	0.0	0.0	-1.0	0.0	0.0	-1.0	52.0	-1.0			423.60761308670044	0.258587121963501
52	409.5789270401001	response	3	0	9						1.0			0.4120759963989258		0.0	3		423.8282251358032	
52	409.6169021129608	feedback_window	4	0	10.0	01	0.0	0.0	0.0	0.0	1.0	0.0	0.0	0.4120759963989258	52.0	0.0			423.86620020866394	0.33329081535339355
52	409.9501929283142	ITI_window	5	0	20.0	01	0.0	0.0	0.0	0.0	1.0	0.0	0.0	0.4120759963989258	52.0	0.0			424.19949102401733	0.6663980484008789
53	410.6165909767151	blockStart	0	-1	0.0	01	0.0	1.0	0.0	0.05	-1.0	0.0	0.0	-1.0	53.0	-1.0			424.8658890724182	0.0026750564575195312
53	410.6192660331726	baseline_window	1	-1	17.0	01	0.0	1.0	0.0	0.05	-1.0	0.0	0.0	-1.0	53.0	-1.0			424.86856412887573	0.4809720516204834
53	411.1002380847931	stimulus_window	2	-1	6.0	01	0.0	1.0	0.0	0.05	-1.0	0.0	0.0	-1.0	53.0	-1.0			425.3495361804962	0.19997096061706543
53	411.30020904541016	response_window	3	-1	11.0	01	0.0	1.0	0.0	0.05	-1.0	0.0	0.0	-1.0	53.0	-1.0			425.5495071411133	0.36668992042541504
53	411.6337161064148	response	3	1	11						1.0			0.5334780216217041		0.0	4		425.8830142021179	
53	411.66689896583557	feedback_window	4	1	9.0	01	0.0	1.0	0.0	0.05	1.0	0.0	0.0	0.5334780216217041	53.0	0.0			425.9161970615387	0.3081190586090088
53	411.9750180244446	ITI_window	5	1	24.0	01	0.0	1.0	0.0	0.05	1.0	0.0	0.0	0.5334780216217041	53.0	0.0			426.2243161201477	0.8009860515594482
54	412.776004076004	blockStart	0	-1	0.0	01	0.0	0.0	0.0	0.0	-1.0	0.0	0.0	-1.0	54.0	-1.0			427.02530217170715	0.004312038421630859
54	412.78031611442566	baseline_window	1	-1	15.0	01	0.0	0.0	0.0	0.0	-1.0	0.0	0.0	-1.0	54.0	-1.0			427.0296142101288	0.5031919479370117
54	413.28350806236267	stimulus_window	2	-1	5.0	01	0.0	0.0	0.0	0.0	-1.0	0.0	0.0	-1.0	54.0	-1.0			427.5328061580658	0.17479395866394043
54	413.4583020210266	response_window	3	-1	10.0	01	0.0	0.0	0.0	0.0	-1.0	0.0	1.0	-1.0	54.0	-1.0			427.70760011672974	0.26669812202453613
54	413.6871020793915	response	3	0	10						1.0			0.4035940170288086		0.0	3		427.9364001750946	
54	413.72500014305115	feedback_window	4	0	11.0	01	0.0	0.0	0.0	0.0	1.0	0.0	1.0	0.4035940170288086	54.0	0.0			427.9742982387543	0.3081989288330078
54	414.03319907188416	ITI_window	5	0	32.0	01	0.0	0.0	0.0	0.0	1.0	0.0	1.0	0.4035940170288086	54.0	0.0			428.2824971675873	0.9000840187072754
55	414.93328309059143	blockStart	0	-1	0.0	01	0.0	1.0	1.0	0.045000000000000005	-1.0	0.0	0.0	-1.0	55.0	-1.0			429.18258118629456	0.0026369094848632812
55	414.9359200000763	baseline_window	1	-1	19.0	01	0.0	1.0	1.0	0.045000000000000005	-1.0	0.0	0.0	-1.0	55.0	-1.0			429.1852180957794	0.4891030788421631
55	415.42502307891846	stimulus_window	2	-1	6.0	01	0.0	1.0	1.0	0.045000000000000005	-1.0	0.0	0.0	-1.0	55.0	-1.0			429.6743211746216	0.19147205352783203
55	415.6164951324463	response_window	3	-1	7.0	01	0.0	1.0	1.0	0.045000000000000005	-1.0	0.0	0.0	-1.0	55.0	-1.0			429.8657932281494	0.19182991981506348
55	415.76990509033203	response	3	0	7						0.0			0.3448820114135742		1.0	1		430.01920318603516	
55	415.80832505226135	feedback_window	4	0	11.0	01	0.0	1.0	1.0	0.045000000000000005	0.0	0.0	0.0		55.0	1.0		0.3448820114135742	430.0576231479645	0.31665802001953125
55	416.1249830722809	ITI_window	5	0	33.0	01	0.0	1.0	1.0	0.045000000000000005	0.0	0.0	0.0		55.0	1.0		0.3448820114135742	430.374281167984	0.9331560134887695
56	417.05813908576965	blockStart	0	-1	0.0	01	0.0	1.0	0.0	0.005	-1.0	0.0	0.0	-1.0	56.0	-1.0			431.3074371814728	0.0026340484619140625
56	417.06077313423157	baseline_window	1	-1	19.0	01	0.0	1.0	0.0	0.005	-1.0	0.0	0.0	-1.0	56.0	-1.0			431.3100712299347	0.4893488883972168
56	417.5501220226288	stimulus_window	2	-1	6.0	01	0.0	1.0	0.0	0.005	-1.0	0.0	1.0	-1.0	56.0	-1.0			431.7994201183319	0.19131803512573242
56	417.7414400577545	response_window	3	-1	17.0	01	0.0	1.0	0.0	0.005	-1.0	0.0	1.0	-1.0	56.0	-1.0			431.99073815345764	0.4753999710083008
56	418.17892813682556	response	3	0	17						0.0			0.6288061141967773		0.0	3		432.4282262325287	
56	418.2168400287628	feedback_window	4	0	10.0	01	0.0	1.0	0.0	0.005	0.0	0.0	1.0	0.6288061141967773	56.0	0.0			432.46613812446594	0.33330702781677246
56	418.5501470565796	ITI_window	5	0	21.0	01	0.0	1.0	0.0	0.005	0.0	0.0	1.0	0.6288061141967773	56.0	0.0			432.7994451522827	0.6999139785766602
57	419.25006103515625	blockStart	0	-1	0.0	01	0.0	1.0	1.0	0.015000000000000003	-1.0	0.0	0.0	-1.0	57.0	-1.0			433.4993591308594	0.0025560855865478516
57	419.2526171207428	baseline_window	1	-1	17.0	01	0.0	1.0	1.0	0.015000000000000003	-1.0	0.0	0.0	-1.0	57.0	-1.0			433.5019152164459	0.46417784690856934
57	419.71679496765137	stimulus_window	2	-1	6.0	01	0.0	1.0	1.0	0.015000000000000003	-1.0	0.0	1.0	-1.0	57.0	-1.0			433.9660930633545	0.19971609115600586
57	419.9165110588074	response_window	3	-1	9.0	01	0.0	1.0	1.0	0.015000000000000003	-1.0	0.0	1.0	-1.0	57.0	-1.0			434.1658091545105	0.2584540843963623
57	420.1374249458313	response	3	1	9						1.0			0.42062997817993164		1.0	2		434.3867230415344	
57	420.17496514320374	feedback_window	4	1	10.0	01	0.0	1.0	1.0	0.015000000000000003	1.0	0.0	1.0	0.42062997817993164	57.0	1.0			434.42426323890686	0.33333778381347656
57	420.5083029270172	ITI_window	5	1	23.0	01	0.0	1.0	1.0	0.015000000000000003	1.0	0.0	1.0	0.42062997817993164	57.0	1.0			434.75760102272034	0.7664270401000977
58	421.2747299671173	blockStart	0	-1	0.0	01	0.0	0.0	0.0	0.0	-1.0	0.0	0.0	-1.0	58.0	-1.0			435.52402806282043	0.002547025680541992
58	421.27727699279785	baseline_window	1	-1	18.0	01	0.0	0.0	0.0	0.0	-1.0	0.0	0.0	-1.0	58.0	-1.0			435.526575088501	0.48955607414245605
58	421.7668330669403	stimulus_window	2	-1	6.0	01	0.0	0.0	0.0	0.0	-1.0	0.0	1.0	-1.0	58.0	-1.0			436.01613116264343	0.19140386581420898
58	421.9582369327545	response_window	3	-1	14.0	01	0.0	0.0	0.0	0.0	-1.0	0.0	1.0	-1.0	58.0	-1.0			436.20753502845764	0.3833580017089844
58	422.2952060699463	response	3	0	14						1.0			0.5283730030059814		0.0	3		436.5445041656494	
58	422.3415949344635	feedback_window	4	0	10.0	01	0.0	0.0	0.0	0.0	1.0	0.0	1.0	0.5283730030059814	58.0	0.0			436.5908930301666	0.333327054977417
58	422.6749219894409	ITI_window	5	0	18.0	01	0.0	0.0	0.0	0.0	1.0	0.0	1.0	0.5283730030059814	58.0	0.0			436.92422008514404	0.5998320579528809
59	423.2747540473938	blockStart	0	-1	0.0	01	0.0	1.0	0.0	0.04	-1.0	0.0	0.0	-1.0	59.0	-1.0			437.5240521430969	0.002641916275024414
59	423.2773959636688	baseline_window	1	-1	18.0	01	0.0	1.0	0.0	0.04	-1.0	0.0	0.0	-1.0	59.0	-1.0			437.52669405937195	0.4808981418609619
59	423.7582941055298	stimulus_window	2	-1	6.0	01	0.0	1.0	0.0	0.04	-1.0	0.0	1.0	-1.0	59.0	-1.0			438.0075922012329	0.19983196258544922
59	423.95812606811523	response_window	3	-1	9.0	01	0.0	1.0	0.0	0.04	-1.0	0.0	1.0	-1.0	59.0	-1.0			438.20742416381836	0.25013184547424316
59	424.1708679199219	response	3	1	9						1.0			0.41257381439208984		1.0	2		438.420166015625	
59	424.2082579135895	feedback_window	4	1	10.0	01	0.0	1.0	0.0	0.04	1.0	0.0	1.0	0.41257381439208984	59.0	1.0			438.4575560092926	0.3333311080932617
59	424.54158902168274	ITI_window	5	1	25.0	01	0.0	1.0	0.0	0.04	1.0	0.0	1.0	0.41257381439208984	59.0	1.0			438.79088711738586	0.8165450096130371
60	425.3581340312958	blockStart	0	-1	0.0	01	0.0	1.0	0.0	0.045000000000000005	-1.0	0.0	0.0	-1.0	60.0	-1.0			439.6074321269989	0.002643108367919922
60	425.3607771396637	baseline_window	1	-1	19.0	01	0.0	1.0	0.0	0.045000000000000005	-1.0	0.0	0.0	-1.0	60.0	-1.0			439.6100752353668	0.4889659881591797
60	425.8497431278229	stimulus_window	2	-1	6.0	01	0.0	1.0	0.0	0.045000000000000005	-1.0	0.0	1.0	-1.0	60.0	-1.0			440.099041223526	0.19157099723815918
60	426.04131412506104	response_window	3	-1	13.0	01	0.0	1.0	0.0	0.045000000000000005	-1.0	0.0	1.0	-1.0	60.0	-1.0			440.29061222076416	0.3500068187713623
60	426.3582019805908	response	3	1	13						1.0			0.5084588527679443		1.0	2		440.60750007629395	
60	426.3913209438324	feedback_window	4	1	11.0	01	0.0	1.0	0.0	0.045000000000000005	1.0	0.0	1.0	0.5084588527679443	60.0	1.0			440.6406190395355	0.3165700435638428
60	426.70789098739624	ITI_window	5	1	28.0	01	0.0	1.0	0.0	0.045000000000000005	1.0	0.0	1.0	0.5084588527679443	60.0	1.0			440.95718908309937	0.7921280860900879
61	427.5000190734863	blockStart	0	-1	0.0	01	0.0	0.0	1.0	0.0	-1.0	0.0	0.0	-1.0	61.0	-1.0			441.74931716918945	0.0025839805603027344
61	427.50260305404663	baseline_window	1	-1	17.0	01	0.0	0.0	1.0	0.0	-1.0	0.0	0.0	-1.0	61.0	-1.0			441.75190114974976	0.4974489212036133
61	428.00005197525024	stimulus_window	2	-1	6.0	01	0.0	0.0	1.0	0.0	-1.0	0.0	1.0	-1.0	61.0	-1.0			442.24935007095337	0.1998751163482666
61	428.1999270915985	response_window	3	-1	16.0	01	0.0	0.0	1.0	0.0	-1.0	0.0	1.0	-1.0	61.0	-1.0			442.44922518730164	0.45829105377197266
61	428.6250560283661	response	3	0	16						1.0			0.6250040531158447		0.0	3		442.8743541240692	
61	428.6582181453705	feedback_window	4	0	10.0	01	0.0	0.0	1.0	0.0	1.0	0.0	1.0	0.6250040531158447	61.0	0.0			442.9075162410736	0.3333148956298828
61	428.99153304100037	ITI_window	5	0	26.0	01	0.0	0.0	1.0	0.0	1.0	0.0	1.0	0.6250040531158447	61.0	0.0			443.2408311367035	0.866502046585083
62	429.85803508758545	blockStart	0	-1	0.0	01	0.0	1.0	0.0	0.025000000000000005	-1.0	0.0	0.0	-1.0	62.0	-1.0			444.1073331832886	0.0026578903198242188
62	429.8606929779053	baseline_window	1	-1	17.0	01	0.0	1.0	0.0	0.025000000000000005	-1.0	0.0	0.0	-1.0	62.0	-1.0			444.1099910736084	0.47269606590270996
62	430.333389043808	stimulus_window	2	-1	6.0	01	0.0	1.0	0.0	0.025000000000000005	-1.0	0.0	1.0	-1.0	62.0	-1.0			444.5826871395111	0.19999003410339355
62	430.5333790779114	response_window	3	-1	10.0	01	0.0	1.0	0.0	0.025000000000000005	-1.0	0.0	1.0	-1.0	62.0	-1.0			444.7826771736145	0.2833058834075928
62	430.783420085907	response	3	1	10						1.0			0.450031042098999		1.0	2		445.0327181816101	
62	430.81668496131897	feedback_window	4	1	9.0	01	0.0	1.0	0.0	0.025000000000000005	1.0	0.0	1.0	0.450031042098999	62.0	1.0			445.0659830570221	0.2998340129852295
62	431.1165189743042	ITI_window	5	1	23.0	01	0.0	1.0	0.0	0.025000000000000005	1.0	0.0	1.0	0.450031042098999	62.0	1.0			445.3658170700073	0.7667579650878906
63	431.8832769393921	blockStart	0	-1	0.0	01	0.0	0.0	0.0	0.0	-1.0	0.0	0.0	-1.0	63.0	-1.0			446.1325750350952	0.002657175064086914
63	431.8859341144562	baseline_window	1	-1	16.0	01	0.0	0.0	0.0	0.0	-1.0	0.0	0.0	-1.0	63.0	-1.0			446.1352322101593	0.46410083770751953
63	432.3500349521637	stimulus_window	2	-1	6.0	01	0.0	0.0	0.0	0.0	-1.0	0.0	1.0	-1.0	63.0	-1.0			446.5993330478668	0.20002317428588867
63	432.5500581264496	response_window	3	-1	14.0	01	0.0	0.0	0.0	0.0	-1.0	0.0	1.0	-1.0	63.0	-1.0			446.7993562221527	0.3914918899536133
63	432.90420508384705	response	3	0	14						1.0			0.5541701316833496		1.0	1		447.15350317955017	
63	432.9415500164032	feedback_window	4	0	10.0	01	0.0	0.0	0.0	0.0	1.0	0.0	1.0		63.0	1.0		0.5541701316833496	447.1908481121063	0.3332951068878174
63	433.274845123291	ITI_window	5	0	24.0	01	0.0	0.0	0.0	0.0	1.0	0.0	1.0		63.0	1.0		0.5541701316833496	447.52414321899414	0.7751297950744629
64	434.0499749183655	blockStart	0	-1	0.0	01	0.0	0.0	0.0	0.0	-1.0	0.0	0.0	-1.0	64.0	-1.0			448.2992730140686	0.002649068832397461
64	434.0526239871979	baseline_window	1	-1	18.0	01	0.0	0.0	0.0	0.0	-1.0	0.0	0.0	-1.0	64.0	-1.0			448.301922082901	0.46370911598205566
64	434.51633310317993	stimulus_window	2	-1	7.0	01	0.0	0.0	0.0	0.0	-1.0	0.0	1.0	-1.0	64.0	-1.0			448.76563119888306	0.20000600814819336
64	434.7163391113281	response_window	3	-1	12.0	01	0.0	0.0	0.0	0.0	-1.0	0.0	1.0	-1.0	64.0	-1.0			448.96563720703125	0.3169829845428467
64	434.9947090148926	response	3	1	12						0.0			0.4783759117126465		0.0	4		449.2440071105957	
64	435.033322095871	feedback_window	4	1	11.0	01	0.0	0.0	0.0	0.0	0.0	0.0	1.0	0.4783759117126465	64.0	0.0			449.2826201915741	0.32519984245300293
64	435.358521938324	ITI_window	5	1	30.0	01	0.0	0.0	0.0	0.0	0.0	0.0	1.0	0.4783759117126465	64.0	0.0			449.6078200340271	0.9160912036895752
65	436.27461314201355	blockStart	0	-1	0.0	01	0.0	0.0	1.0	0.0	-1.0	0.0	0.0	-1.0	65.0	-1.0			450.5239112377167	0.002635955810546875
65	436.2772490978241	baseline_window	1	-1	19.0	01	0.0	0.0	1.0	0.0	-1.0	0.0	0.0	-1.0	65.0	-1.0			450.5265471935272	0.4890480041503906
65	436.7662971019745	stimulus_window	2	-1	7.0	01	0.0	0.0	1.0	0.0	-1.0	0.0	1.0	-1.0	65.0	-1.0			451.0155951976776	0.19156384468078613
65	436.9578609466553	response_window	3	-1	20.0	01	0.0	0.0	1.0	0.0	-1.0	0.0	1.0	-1.0	65.0	-1.0			451.2071590423584	0.5166571140289307
65	437.43643712997437	response	3	0	20						1.0			0.6701400279998779		0.0	3		451.6857352256775	
65	437.4745180606842	feedback_window	4	0	11.0	01	0.0	0.0	1.0	0.0	1.0	0.0	1.0	0.6701400279998779	65.0	0.0			451.72381615638733	0.2999880313873291
65	437.77450609207153	ITI_window	5	0	27.0	01	0.0	0.0	1.0	0.0	1.0	0.0	1.0	0.6701400279998779	65.0	0.0			452.02380418777466	0.7417299747467041
66	438.51623606681824	blockStart	0	-1	0.0	01	0.0	1.0	1.0	0.05	-1.0	0.0	0.0	-1.0	66.0	-1.0			452.76553416252136	0.002714872360229492
66	438.51895093917847	baseline_window	1	-1	19.0	01	0.0	1.0	1.0	0.05	-1.0	0.0	0.0	-1.0	66.0	-1.0			452.7682490348816	0.49771809577941895
66	439.0166690349579	stimulus_window	2	-1	6.0	01	0.0	1.0	1.0	0.05	-1.0	0.0	1.0	-1.0	66.0	-1.0			453.265967130661	0.1911940574645996
66	439.2078630924225	response_window	3	-1	19.0	01	0.0	1.0	1.0	0.05	-1.0	0.0	1.0	-1.0	66.0	-1.0			453.4571611881256	0.4921078681945801
66	439.6664950847626	response	3	1	19						1.0			0.6498260498046875		0.0	4		453.9157931804657	
66	439.69997096061707	feedback_window	4	1	11.0	01	0.0	1.0	1.0	0.05	1.0	0.0	1.0	0.6498260498046875	66.0	0.0			453.9492690563202	0.3078341484069824
66	440.00780510902405	ITI_window	5	1	27.0	01	0.0	1.0	1.0	0.05	1.0	0.0	1.0	0.6498260498046875	66.0	0.0			454.2571032047272	0.7501099109649658
67	440.757915019989	blockStart	0	-1	0.0	01	0.0	1.0	0.0	0.010000000000000002	-1.0	0.0	0.0	-1.0	67.0	-1.0			455.00721311569214	0.0025010108947753906
67	440.7604160308838	baseline_window	1	-1	19.0	01	0.0	1.0	0.0	0.010000000000000002	-1.0	0.0	0.0	-1.0	67.0	-1.0			455.0097141265869	0.48957300186157227
67	441.24998903274536	stimulus_window	2	-1	6.0	01	0.0	1.0	0.0	0.010000000000000002	-1.0	0.0	1.0	-1.0	67.0	-1.0			455.4992871284485	0.19963407516479492
67	441.44962310791016	response_window	3	-1	31.0	01	0.0	1.0	0.0	0.010000000000000002	-1.0	0.0	1.0	-1.0	67.0	-1.0			455.6989212036133	0.8003408908843994
67	442.211403131485	response	3	0	31						0.0			0.961414098739624		0.0	3		456.4607012271881	
67	442.24996399879456	feedback_window	4	0	11.0	01	0.0	1.0	0.0	0.010000000000000002	0.0	0.0	1.0	0.961414098739624	67.0	0.0			456.4992620944977	0.29960012435913086
67	442.5495641231537	ITI_window	5	0	35.0	01	0.0	1.0	0.0	0.010000000000000002	0.0	0.0	1.0	0.961414098739624	67.0	0.0			456.7988622188568	0.9749019145965576
68	443.52446603775024	blockStart	0	-1	0.0	01	0.0	1.0	0.0	0.045000000000000005	-1.0	0.0	0.0	-1.0	68.0	-1.0			457.77376413345337	0.002671957015991211
68	443.52713799476624	baseline_window	1	-1	19.0	01	0.0	1.0	0.0	0.045000000000000005	-1.0	0.0	0.0	-1.0	68.0	-1.0			457.77643609046936	0.4976630210876465
68	444.0248010158539	stimulus_window	2	-1	6.0	01	0.0	1.0	0.0	0.045000000000000005	-1.0	0.0	1.0	-1.0	68.0	-1.0			458.274099111557	0.19144201278686523
68	444.21624302864075	response_window	3	-1	12.0	01	0.0	1.0	0.0	0.045000000000000005	-1.0	0.0	1.0	-1.0	68.0	-1.0			458.4655411243439	0.31702709197998047
68	444.4948921203613	response	3	1	12						1.0			0.4700911045074463		1.0	2		458.74419021606445	
68	444.5332701206207	feedback_window	4	1	9.0	01	0.0	1.0	0.0	0.045000000000000005	1.0	0.0	1.0	0.4700911045074463	68.0	1.0			458.78256821632385	0.3081929683685303
68	444.84146308898926	ITI_window	5	1	29.0	01	0.0	1.0	0.0	0.045000000000000005	1.0	0.0	1.0	0.4700911045074463	68.0	1.0			459.0907611846924	0.9415538311004639
69	445.7830169200897	blockStart	0	-1	0.0	01	0.0	1.0	0.0	0.04	-1.0	0.0	0.0	-1.0	69.0	-1.0			460.03231501579285	0.0026171207427978516
69	445.7856340408325	baseline_window	1	-1	18.0	01	0.0	1.0	0.0	0.04	-1.0	0.0	0.0	-1.0	69.0	-1.0			460.03493213653564	0.4643208980560303
69	446.24995493888855	stimulus_window	2	-1	6.0	01	0.0	1.0	0.0	0.04	-1.0	0.0	1.0	-1.0	69.0	-1.0			460.4992530345917	0.19962596893310547
69	446.44958090782166	response_window	3	-1	11.0	01	0.0	1.0	0.0	0.04	-1.0	0.0	1.0	-1.0	69.0	-1.0			460.6988790035248	0.30034804344177246
69	446.71180391311646	response	3	0	11						0.0			0.4618489742279053		1.0	1		460.9611020088196	
69	446.7499289512634	feedback_window	4	0	10.0	01	0.0	1.0	0.0	0.04	0.0	0.0	1.0		69.0	1.0		0.4618489742279053	460.99922704696655	0.3333241939544678
69	447.0832531452179	ITI_window	5	0	31.0	01	0.0	1.0	0.0	0.04	0.0	0.0	1.0		69.0	1.0		0.4618489742279053	461.332551240921	0.9165339469909668
70	447.99978709220886	blockStart	0	-1	0.0	01	0.0	0.0	0.0	0.0	-1.0	0.0	0.0	-1.0	70.0	-1.0			462.249085187912	0.002635955810546875
70	448.0024230480194	baseline_window	1	-1	18.0	01	0.0	0.0	0.0	0.0	-1.0	0.0	0.0	-1.0	70.0	-1.0			462.25172114372253	0.5056400299072266
70	448.50806307792664	stimulus_window	2	-1	6.0	01	0.0	0.0	0.0	0.0	-1.0	0.0	1.0	-1.0	70.0	-1.0			462.75736117362976	0.19998788833618164
70	448.7080509662628	response_window	3	-1	43.0	01	0.0	0.0	0.0	0.0	-1.0	0.0	1.0	-1.0	70.0	-1.0			462.95734906196594	1.1833250522613525
70	449.89137601852417	feedback_window	4	-1	9.0	01	0.0	0.0	0.0	0.0	-1.0	0.0	1.0	-1.0	70.0	-1.0			464.1406741142273	0.29997801780700684
70	450.1913540363312	ITI_window	5	-1	20.0	01	0.0	0.0	0.0	0.0	-1.0	0.0	1.0	-1.0	70.0	-1.0			464.4406521320343	0.6664979457855225
71	450.8578519821167	blockStart	0	-1	0.0	01	0.0	0.0	1.0	0.0	-1.0	0.0	0.0	-1.0	71.0	-1.0			465.1071500778198	0.002669095993041992
71	450.86052107810974	baseline_window	1	-1	18.0	01	0.0	0.0	1.0	0.0	-1.0	0.0	0.0	-1.0	71.0	-1.0			465.10981917381287	0.4722900390625
71	451.33281111717224	stimulus_window	2	-1	6.0	01	0.0	0.0	1.0	0.0	-1.0	0.0	1.0	-1.0	71.0	-1.0			465.58210921287537	0.19182586669921875
71	451.52463698387146	response_window	3	-1	44.0	01	0.0	0.0	1.0	0.0	-1.0	0.0	1.0	-1.0	71.0	-1.0			465.7739350795746	1.2085649967193604
71	452.7332019805908	feedback_window	4	-1	9.0	01	0.0	0.0	1.0	0.0	-1.0	0.0	1.0	-1.0	71.0	-1.0			466.98250007629395	0.2999999523162842
71	453.0332019329071	ITI_window	5	-1	22.0	01	0.0	0.0	1.0	0.0	-1.0	0.0	1.0	-1.0	71.0	-1.0			467.28250002861023	0.733159065246582
72	453.7663609981537	blockStart	0	-1	0.0	01	0.0	0.0	0.0	0.0	-1.0	0.0	0.0	-1.0	72.0	-1.0			468.0156590938568	0.0027000904083251953
72	453.769061088562	baseline_window	1	-1	18.0	01	0.0	0.0	0.0	0.0	-1.0	0.0	0.0	-1.0	72.0	-1.0			468.01835918426514	0.4804408550262451
72	454.24950194358826	stimulus_window	2	-1	6.0	01	0.0	0.0	0.0	0.0	-1.0	0.0	1.0	-1.0	72.0	-1.0			468.4988000392914	0.20033907890319824
72	454.44984102249146	response_window	3	-1	14.0	01	0.0	0.0	0.0	0.0	-1.0	0.0	1.0	-1.0	72.0	-1.0			468.6991391181946	0.3915219306945801
72	454.80394101142883	response	3	0	14						1.0			0.5544390678405762		0.0	3		469.05323910713196	
72	454.84136295318604	feedback_window	4	0	10.0	01	0.0	0.0	0.0	0.0	1.0	0.0	1.0	0.5544390678405762	72.0	0.0			469.09066104888916	0.33333706855773926
72	455.1747000217438	ITI_window	5	0	25.0	01	0.0	0.0	0.0	0.0	1.0	0.0	1.0	0.5544390678405762	72.0	0.0			469.4239981174469	0.833096981048584
73	456.00779700279236	blockStart	0	-1	0.0	01	0.0	1.0	1.0	0.010000000000000002	-1.0	0.0	0.0	-1.0	73.0	-1.0			470.2570950984955	0.0026400089263916016
73	456.01043701171875	baseline_window	1	-1	18.0	01	0.0	1.0	1.0	0.010000000000000002	-1.0	0.0	0.0	-1.0	73.0	-1.0			470.2597351074219	0.47275710105895996
73	456.4831941127777	stimulus_window	2	-1	6.0	01	0.0	1.0	1.0	0.010000000000000002	-1.0	0.0	1.0	-1.0	73.0	-1.0			470.73249220848083	0.19964981079101562
73	456.6828439235687	response_window	3	-1	12.0	01	0.0	1.0	1.0	0.010000000000000002	-1.0	0.0	1.0	-1.0	73.0	-1.0			470.93214201927185	0.341825008392334
73	456.99153113365173	response	3	0	12						0.0			0.5083370208740234		0.0	3		471.24082922935486	
73	457.02466893196106	feedback_window	4	0	10.0	01	0.0	1.0	1.0	0.010000000000000002	0.0	0.0	1.0	0.5083370208740234	73.0	0.0			471.2739670276642	0.3333561420440674
73	457.3580250740051	ITI_window	5	0	19.0	01	0.0	1.0	1.0	0.010000000000000002	0.0	0.0	1.0	0.5083370208740234	73.0	0.0			471.60732316970825	0.6331088542938232
74	457.99113392829895	blockStart	0	-1	0.0	01	0.0	0.0	0.0	0.0	-1.0	0.0	0.0	-1.0	74.0	-1.0			472.2404320240021	0.002576112747192383
74	457.99371004104614	baseline_window	1	-1	19.0	01	0.0	0.0	0.0	0.0	-1.0	0.0	0.0	-1.0	74.0	-1.0			472.24300813674927	0.49762892723083496
74	458.491338968277	stimulus_window	2	-1	6.0	01	0.0	0.0	0.0	0.0	-1.0	0.0	1.0	-1.0	74.0	-1.0			472.7406370639801	0.18340301513671875
74	458.6747419834137	response_window	3	-1	8.0	01	0.0	0.0	0.0	0.0	-1.0	0.0	1.0	-1.0	74.0	-1.0			472.9240400791168	0.22509407997131348
74	458.86110496520996	response	3	0	8						1.0			0.3697659969329834		0.0	3		473.1104030609131	
74	458.899836063385	feedback_window	4	0	10.0	01	0.0	0.0	0.0	0.0	1.0	0.0	1.0	0.3697659969329834	74.0	0.0			473.14913415908813	0.2996509075164795
74	459.1994869709015	ITI_window	5	0	30.0	01	0.0	0.0	0.0	0.0	1.0	0.0	1.0	0.3697659969329834	74.0	0.0			473.4487850666046	0.8501200675964355
75	460.0496070384979	blockStart	0	-1	0.0	01	0.0	0.0	1.0	0.0	-1.0	0.0	0.0	-1.0	75.0	-1.0			474.29890513420105	0.002666950225830078
75	460.05227398872375	baseline_window	1	-1	19.0	01	0.0	0.0	1.0	0.0	-1.0	0.0	0.0	-1.0	75.0	-1.0			474.3015720844269	0.48049092292785645
75	460.5327649116516	stimulus_window	2	-1	6.0	01	0.0	0.0	1.0	0.0	-1.0	0.0	1.0	-1.0	75.0	-1.0			474.78206300735474	0.20036101341247559
75	460.7331259250641	response_window	3	-1	11.0	01	0.0	0.0	1.0	0.0	-1.0	0.0	1.0	-1.0	75.0	-1.0			474.9824240207672	0.3081932067871094
75	461.0079700946808	response	3	0	11						1.0			0.4752051830291748		1.0	1		475.2572681903839	
75	461.0413191318512	feedback_window	4	0	10.0	01	0.0	0.0	1.0	0.0	1.0	0.0	1.0		75.0	1.0		0.4752051830291748	475.2906172275543	0.33331990242004395
75	461.37463903427124	ITI_window	5	0	27.0	01	0.0	0.0	1.0	0.0	1.0	0.0	1.0		75.0	1.0		0.4752051830291748	475.62393712997437	0.8998448848724365
76	462.2744839191437	blockStart	0	-1	0.0	01	0.0	1.0	0.0	0.015000000000000003	-1.0	0.0	0.0	-1.0	76.0	-1.0			476.5237820148468	0.0027010440826416016
76	462.2771849632263	baseline_window	1	-1	17.0	01	0.0	1.0	0.0	0.015000000000000003	-1.0	0.0	0.0	-1.0	76.0	-1.0			476.52648305892944	0.47263002395629883
76	462.7498149871826	stimulus_window	2	-1	6.0	01	0.0	1.0	0.0	0.015000000000000003	-1.0	0.0	1.0	-1.0	76.0	-1.0			476.99911308288574	0.19157195091247559
76	462.9413869380951	response_window	3	-1	13.0	01	0.0	1.0	0.0	0.015000000000000003	-1.0	0.0	1.0	-1.0	76.0	-1.0			477.1906850337982	0.34989213943481445
76	463.253310918808	response	3	1	13						1.0			0.5034959316253662		1.0	2		477.5026090145111	
76	463.2912790775299	feedback_window	4	1	10.0	01	0.0	1.0	0.0	0.015000000000000003	1.0	0.0	1.0	0.5034959316253662	76.0	1.0			477.54057717323303	0.32518506050109863
76	463.616464138031	ITI_window	5	1	22.0	01	0.0	1.0	0.0	0.015000000000000003	1.0	0.0	1.0	0.5034959316253662	76.0	1.0			477.86576223373413	0.7332708835601807
77	464.3497350215912	blockStart	0	-1	0.0	01	0.0	0.0	0.0	0.0	-1.0	0.0	0.0	-1.0	77.0	-1.0			478.5990331172943	0.0026841163635253906
77	464.3524191379547	baseline_window	1	-1	18.0	01	0.0	0.0	0.0	0.0	-1.0	0.0	0.0	-1.0	77.0	-1.0			478.60171723365784	0.4807319641113281
77	464.83315110206604	stimulus_window	2	-1	6.0	01	0.0	0.0	0.0	0.0	-1.0	0.0	1.0	-1.0	77.0	-1.0			479.08244919776917	0.19995689392089844
77	465.03310799598694	response_window	3	-1	14.0	01	0.0	0.0	0.0	0.0	-1.0	0.0	1.0	-1.0	77.0	-1.0			479.28240609169006	0.39507508277893066
77	465.38745498657227	response	3	0	14						1.0			0.5543038845062256		1.0	1		479.6367530822754	
77	465.42818307876587	feedback_window	4	0	10.0	01	0.0	0.0	0.0	0.0	1.0	0.0	1.0		77.0	1.0		0.5543038845062256	479.677481174469	0.3297560214996338
77	465.7579391002655	ITI_window	5	0	29.0	01	0.0	0.0	0.0	0.0	1.0	0.0	1.0		77.0	1.0		0.5543038845062256	480.0072371959686	0.9583909511566162
78	466.7163300514221	blockStart	0	-1	0.0	01	0.0	0.0	0.0	0.0	-1.0	0.0	0.0	-1.0	78.0	-1.0			480.96562814712524	0.002610921859741211
78	466.71894097328186	baseline_window	1	-1	18.0	01	0.0	0.0	0.0	0.0	-1.0	0.0	0.0	-1.0	78.0	-1.0			480.968239068985	0.497499942779541
78	467.2164409160614	stimulus_window	2	-1	6.0	01	0.0	0.0	0.0	0.0	-1.0	0.0	1.0	-1.0	78.0	-1.0			481.4657390117645	0.19129705429077148
78	467.4077379703522	response_window	3	-1	12.0	01	0.0	0.0	0.0	0.0	-1.0	0.0	1.0	-1.0	78.0	-1.0			481.6570360660553	0.34210705757141113
78	467.7166440486908	response	3	0	12						1.0			0.5002031326293945		1.0	1		481.9659421443939	
78	467.7498450279236	feedback_window	4	0	10.0	01	0.0	0.0	0.0	0.0	1.0	0.0	1.0		78.0	1.0		0.5002031326293945	481.9991431236267	0.30784106254577637
78	468.05768609046936	ITI_window	5	0	22.0	01	0.0	0.0	0.0	0.0	1.0	0.0	1.0		78.0	1.0		0.5002031326293945	482.3069841861725	0.6333718299865723
79	468.69105792045593	blockStart	0	-1	0.0	01	0.0	0.0	0.0	0.0	-1.0	0.0	0.0	-1.0	79.0	-1.0			482.94035601615906	0.0026941299438476562
79	468.6937520503998	baseline_window	1	-1	19.0	01	0.0	0.0	0.0	0.0	-1.0	0.0	0.0	-1.0	79.0	-1.0			482.9430501461029	0.4893310070037842
79	469.18308305740356	stimulus_window	2	-1	6.0	01	0.0	0.0	0.0	0.0	-1.0	0.0	1.0	-1.0	79.0	-1.0			483.4323811531067	0.17467808723449707
79	469.35776114463806	response_window	3	-1	13.0	01	0.0	0.0	0.0	0.0	-1.0	0.0	1.0	-1.0	79.0	-1.0			483.6070592403412	0.3668038845062256
79	469.6865711212158	response	3	0	13						1.0			0.5034880638122559		1.0	1		483.93586921691895	
79	469.7245650291443	feedback_window	4	0	10.0	01	0.0	0.0	0.0	0.0	1.0	0.0	1.0		79.0	1.0		0.5034880638122559	483.9738631248474	0.2996499538421631
79	470.02421498298645	ITI_window	5	0	27.0	01	0.0	0.0	0.0	0.0	1.0	0.0	1.0		79.0	1.0		0.5034880638122559	484.2735130786896	0.7834410667419434
80	470.8076560497284	blockStart	0	-1	0.0	01	0.0	0.0	0.0	0.0	-1.0	0.0	0.0	-1.0	80.0	-1.0			485.0569541454315	0.002629995346069336
80	470.81028604507446	baseline_window	1	-1	17.0	01	0.0	0.0	0.0	0.0	-1.0	0.0	0.0	-1.0	80.0	-1.0			485.0595841407776	0.46430301666259766
80	471.27458906173706	stimulus_window	2	-1	6.0	01	0.0	0.0	0.0	0.0	-1.0	0.0	1.0	-1.0	80.0	-1.0			485.5238871574402	0.19170689582824707
80	471.4662959575653	response_window	3	-1	12.0	01	0.0	0.0	0.0	0.0	-1.0	0.0	1.0	-1.0	80.0	-1.0			485.71559405326843	0.32491517066955566
80	471.75341391563416	response	3	0	12						1.0			0.4788248538970947		1.0	1		486.0027120113373	
80	471.79121112823486	feedback_window	4	0	10.0	01	0.0	0.0	0.0	0.0	1.0	0.0	1.0		80.0	1.0		0.4788248538970947	486.040509223938	0.29969191551208496
80	472.09090304374695	ITI_window	5	0	35.0	01	0.0	0.0	0.0	0.0	1.0	0.0	1.0		80.0	1.0		0.4788248538970947	486.3402011394501	1.0001270771026611
81	473.0910301208496	blockStart	0	-1	0.0	01	0.0	0.0	0.0	0.0	-1.0	0.0	0.0	-1.0	81.0	-1.0			487.34032821655273	0.002543926239013672
81	473.0935740470886	baseline_window	1	-1	18.0	01	0.0	0.0	0.0	0.0	-1.0	0.0	0.0	-1.0	81.0	-1.0			487.34287214279175	0.4727959632873535
81	473.566370010376	stimulus_window	2	-1	7.0	01	0.0	0.0	0.0	0.0	-1.0	0.0	1.0	-1.0	81.0	-1.0			487.8156681060791	0.19970393180847168
81	473.76607394218445	response_window	3	-1	11.0	01	0.0	0.0	0.0	0.0	-1.0	0.0	1.0	-1.0	81.0	-1.0			488.0153720378876	0.2918260097503662
81	474.0193130970001	response	3	0	11						1.0			0.4529430866241455		1.0	1		488.26861119270325	
81	474.0578999519348	feedback_window	4	0	11.0	01	0.0	0.0	0.0	0.0	1.0	0.0	1.0		81.0	1.0		0.4529430866241455	488.30719804763794	0.299652099609375
81	474.3575520515442	ITI_window	5	0	32.0	01	0.0	0.0	0.0	0.0	1.0	0.0	1.0		81.0	1.0		0.4529430866241455	488.6068501472473	0.9752709865570068
82	475.3328230381012	blockStart	0	-1	0.0	01	0.0	1.0	1.0	0.030000000000000006	-1.0	0.0	0.0	-1.0	82.0	-1.0			489.5821211338043	0.002719879150390625
82	475.3355429172516	baseline_window	1	-1	17.0	01	0.0	1.0	1.0	0.030000000000000006	-1.0	0.0	0.0	-1.0	82.0	-1.0			489.5848410129547	0.4641861915588379
82	475.7997291088104	stimulus_window	2	-1	6.0	01	0.0	1.0	1.0	0.030000000000000006	-1.0	0.0	1.0	-1.0	82.0	-1.0			490.04902720451355	0.1914079189300537
82	475.9911370277405	response_window	3	-1	17.0	01	0.0	1.0	1.0	0.030000000000000006	-1.0	0.0	1.0	-1.0	82.0	-1.0			490.2404351234436	0.47522807121276855
82	476.43309807777405	response	3	1	17						1.0			0.633368968963623		1.0	2		490.6823961734772	
82	476.46636509895325	feedback_window	4	1	10.0	01	0.0	1.0	1.0	0.030000000000000006	1.0	0.0	1.0	0.633368968963623	82.0	1.0			490.7156631946564	0.33330702781677246
82	476.79967212677	ITI_window	5	1	25.0	01	0.0	1.0	1.0	0.030000000000000006	1.0	0.0	1.0	0.633368968963623	82.0	1.0			491.04897022247314	0.7164499759674072
83	477.5161221027374	blockStart	0	-1	0.0	01	0.0	1.0	1.0	0.005	-1.0	0.0	0.0	-1.0	83.0	-1.0			491.76542019844055	0.002629995346069336
83	477.5187520980835	baseline_window	1	-1	18.0	01	0.0	1.0	1.0	0.005	-1.0	0.0	0.0	-1.0	83.0	-1.0			491.7680501937866	0.4724128246307373
83	477.99116492271423	stimulus_window	2	-1	7.0	01	0.0	1.0	1.0	0.005	-1.0	0.0	1.0	-1.0	83.0	-1.0			492.24046301841736	0.20815706253051758
83	478.19932198524475	response_window	3	-1	11.0	01	0.0	1.0	1.0	0.005	-1.0	0.0	1.0	-1.0	83.0	-1.0			492.4486200809479	0.29184794425964355
83	478.45776104927063	response	3	0	11						0.0			0.4665961265563965		1.0	1		492.70705914497375	
83	478.4911699295044	feedback_window	4	0	10.0	01	0.0	1.0	1.0	0.005	0.0	0.0	1.0		83.0	1.0		0.4665961265563965	492.7404680252075	0.3333430290222168
83	478.8245129585266	ITI_window	5	0	28.0	01	0.0	1.0	1.0	0.005	0.0	0.0	1.0		83.0	1.0		0.4665961265563965	493.07381105422974	0.8415939807891846
84	479.6661069393158	blockStart	0	-1	0.0	01	0.0	0.0	0.0	0.0	-1.0	0.0	0.0	-1.0	84.0	-1.0			493.9154050350189	0.0025360584259033203
84	479.6686429977417	baseline_window	1	-1	19.0	01	0.0	0.0	0.0	0.0	-1.0	0.0	0.0	-1.0	84.0	-1.0			493.9179410934448	0.48888397216796875
84	480.15752696990967	stimulus_window	2	-1	7.0	01	0.0	0.0	0.0	0.0	-1.0	0.0	1.0	-1.0	84.0	-1.0			494.4068250656128	0.20009803771972656
84	480.3576250076294	response_window	3	-1	11.0	01	0.0	0.0	0.0	0.0	-1.0	0.0	1.0	-1.0	84.0	-1.0			494.6069231033325	0.29204297065734863
84	480.61086106300354	response	3	0	11						1.0			0.45333409309387207		1.0	1		494.86015915870667	
84	480.64966797828674	feedback_window	4	0	11.0	01	0.0	0.0	0.0	0.0	1.0	0.0	1.0		84.0	1.0		0.45333409309387207	494.89896607398987	0.3081369400024414
84	480.9578049182892	ITI_window	5	0	23.0	01	0.0	0.0	0.0	0.0	1.0	0.0	1.0		84.0	1.0		0.45333409309387207	495.2071030139923	0.6331801414489746
85	481.59098505973816	blockStart	0	-1	0.0	01	0.0	0.0	1.0	0.0	-1.0	0.0	0.0	-1.0	85.0	-1.0			495.8402831554413	0.0025200843811035156
85	481.59350514411926	baseline_window	1	-1	19.0	01	0.0	0.0	1.0	0.0	-1.0	0.0	0.0	-1.0	85.0	-1.0			495.8428032398224	0.4806649684906006
85	482.07417011260986	stimulus_window	2	-1	7.0	01	0.0	0.0	1.0	0.0	-1.0	0.0	1.0	-1.0	85.0	-1.0			496.323468208313	0.20001888275146484
85	482.2741889953613	response_window	3	-1	12.0	01	0.0	0.0	1.0	0.0	-1.0	0.0	1.0	-1.0	85.0	-1.0			496.52348709106445	0.3169541358947754
85	482.5528709888458	response	3	0	12						1.0			0.4787008762359619		1.0	1		496.80216908454895	
85	482.5911431312561	feedback_window	4	0	11.0	01	0.0	0.0	1.0	0.0	1.0	0.0	1.0		85.0	1.0		0.4787008762359619	496.84044122695923	0.33333587646484375
85	482.92447900772095	ITI_window	5	0	29.0	01	0.0	0.0	1.0	0.0	1.0	0.0	1.0		85.0	1.0		0.4787008762359619	497.1737771034241	0.9664571285247803
86	483.8909361362457	blockStart	0	-1	0.0	01	0.0	1.0	0.0	0.005	-1.0	0.0	0.0	-1.0	86.0	-1.0			498.14023423194885	0.0026040077209472656
86	483.8935401439667	baseline_window	1	-1	17.0	01	0.0	1.0	0.0	0.005	-1.0	0.0	0.0	-1.0	86.0	-1.0			498.1428382396698	0.4806809425354004
86	484.3742210865021	stimulus_window	2	-1	6.0	01	0.0	1.0	0.0	0.005	-1.0	0.0	0.0	-1.0	86.0	-1.0			498.6235191822052	0.20022082328796387
86	484.57444190979004	response_window	3	-1	9.0	01	0.0	1.0	0.0	0.005	-1.0	0.0	0.0	-1.0	86.0	-1.0			498.82374000549316	0.25850820541381836
86	484.7998571395874	response	3	0	9						0.0			0.42563605308532715		1.0	1		499.0491552352905	
86	484.83295011520386	feedback_window	4	0	10.0	01	0.0	1.0	0.0	0.005	0.0	0.0	0.0		86.0	1.0		0.42563605308532715	499.082248210907	0.3333139419555664
86	485.1662640571594	ITI_window	5	0	19.0	01	0.0	1.0	0.0	0.005	0.0	0.0	0.0		86.0	1.0		0.42563605308532715	499.41556215286255	0.6246860027313232
87	485.79095005989075	blockStart	0	-1	0.0	01	0.0	1.0	0.0	0.005	-1.0	0.0	0.0	-1.0	87.0	-1.0			500.0402481555939	0.0026650428771972656
87	485.79361510276794	baseline_window	1	-1	17.0	01	0.0	1.0	0.0	0.005	-1.0	0.0	0.0	-1.0	87.0	-1.0			500.04291319847107	0.47264981269836426
87	486.2662649154663	stimulus_window	2	-1	6.0	01	0.0	1.0	0.0	0.005	-1.0	0.0	0.0	-1.0	87.0	-1.0			500.51556301116943	0.19126105308532715
87	486.45752596855164	response_window	3	-1	14.0	01	0.0	1.0	0.0	0.005	-1.0	0.0	0.0	-1.0	87.0	-1.0			500.70682406425476	0.36690497398376465
87	486.7860860824585	response	3	0	14						0.0			0.5198211669921875		1.0	1		501.0353841781616	
87	486.8244309425354	feedback_window	4	0	11.0	01	0.0	1.0	0.0	0.005	0.0	0.0	0.0		87.0	1.0		0.5198211669921875	501.0737290382385	0.3081700801849365
87	487.13260102272034	ITI_window	5	0	28.0	01	0.0	1.0	0.0	0.005	0.0	0.0	0.0		87.0	1.0		0.5198211669921875	501.38189911842346	0.7666149139404297
88	487.89921593666077	blockStart	0	-1	0.0	01	0.0	1.0	0.0	0.010000000000000002	-1.0	0.0	0.0	-1.0	88.0	-1.0			502.1485140323639	0.0027132034301757812
88	487.90192914009094	baseline_window	1	-1	19.0	01	0.0	1.0	0.0	0.010000000000000002	-1.0	0.0	0.0	-1.0	88.0	-1.0			502.15122723579407	0.4976768493652344
88	488.3996059894562	stimulus_window	2	-1	6.0	01	0.0	1.0	0.0	0.010000000000000002	-1.0	0.0	0.0	-1.0	88.0	-1.0			502.6489040851593	0.1912059783935547
88	488.59081196784973	response_window	3	-1	9.0	01	0.0	1.0	0.0	0.010000000000000002	-1.0	0.0	0.0	-1.0	88.0	-1.0			502.84011006355286	0.24214601516723633
88	488.79945611953735	response	3	0	9						0.0			0.39985013008117676		0.0	3		503.0487542152405	
88	488.83295798301697	feedback_window	4	0	11.0	01	0.0	1.0	0.0	0.010000000000000002	0.0	0.0	0.0	0.39985013008117676	88.0	0.0			503.0822560787201	0.29963111877441406
88	489.1325891017914	ITI_window	5	0	25.0	01	0.0	1.0	0.0	0.010000000000000002	0.0	0.0	0.0	0.39985013008117676	88.0	0.0			503.3818871974945	0.833467960357666
89	489.96605706214905	blockStart	0	-1	0.0	01	0.0	0.0	0.0	0.0	-1.0	0.0	0.0	-1.0	89.0	-1.0			504.2153551578522	0.0027060508728027344
89	489.96876311302185	baseline_window	1	-1	17.0	01	0.0	0.0	0.0	0.0	-1.0	0.0	0.0	-1.0	89.0	-1.0			504.218061208725	0.46416187286376953
89	490.4329249858856	stimulus_window	2	-1	6.0	01	0.0	0.0	0.0	0.0	-1.0	0.0	0.0	-1.0	89.0	-1.0			504.68222308158875	0.19141507148742676
89	490.62434005737305	response_window	3	-1	10.0	01	0.0	0.0	0.0	0.0	-1.0	0.0	0.0	-1.0	89.0	-1.0			504.8736381530762	0.28341007232666016
89	490.874577999115	response	3	0	10						1.0			0.4416530132293701		0.0	3		505.1238760948181	
89	490.9077501296997	feedback_window	4	0	10.0	01	0.0	0.0	0.0	0.0	1.0	0.0	0.0	0.4416530132293701	89.0	0.0			505.15704822540283	0.3337249755859375
89	491.24147510528564	ITI_window	5	0	25.0	01	0.0	0.0	0.0	0.0	1.0	0.0	0.0	0.4416530132293701	89.0	0.0			505.49077320098877	0.8414340019226074
90	492.08290910720825	blockStart	0	-1	0.0	01	0.0	1.0	1.0	0.05	-1.0	0.0	0.0	-1.0	90.0	-1.0			506.3322072029114	0.002669811248779297
90	492.08557891845703	baseline_window	1	-1	17.0	01	0.0	1.0	1.0	0.05	-1.0	0.0	0.0	-1.0	90.0	-1.0			506.33487701416016	0.4721870422363281
90	492.55776596069336	stimulus_window	2	-1	6.0	01	0.0	1.0	1.0	0.05	-1.0	0.0	0.0	-1.0	90.0	-1.0			506.8070640563965	0.1918320655822754
90	492.74959802627563	response_window	3	-1	14.0	01	0.0	1.0	1.0	0.05	-1.0	0.0	0.0	-1.0	90.0	-1.0			506.99889612197876	0.39145898818969727
90	493.10790610313416	response	3	1	14						1.0			0.5501401424407959		1.0	2		507.3572041988373	
90	493.14105701446533	feedback_window	4	1	10.0	01	0.0	1.0	1.0	0.05	1.0	0.0	0.0	0.5501401424407959	90.0	1.0			507.39035511016846	0.3333280086517334
90	493.47438502311707	ITI_window	5	1	21.0	01	0.0	1.0	1.0	0.05	1.0	0.0	0.0	0.5501401424407959	90.0	1.0			507.7236831188202	0.6998679637908936
91	494.17425298690796	blockStart	0	-1	0.0	01	0.0	0.0	0.0	0.0	-1.0	0.0	0.0	-1.0	91.0	-1.0			508.4235510826111	0.002624988555908203
91	494.17687797546387	baseline_window	1	-1	18.0	01	0.0	0.0	0.0	0.0	-1.0	0.0	0.0	-1.0	91.0	-1.0			508.426176071167	0.48897504806518555
91	494.66585302352905	stimulus_window	2	-1	6.0	01	0.0	0.0	0.0	0.0	-1.0	0.0	0.0	-1.0	91.0	-1.0			508.9151511192322	0.20035505294799805
91	494.86620807647705	response_window	3	-1	23.0	01	0.0	0.0	0.0	0.0	-1.0	0.0	0.0	-1.0	91.0	-1.0			509.1155061721802	0.6248419284820557
91	495.44541096687317	response	3	0	23						1.0			0.7795579433441162		0.0	3		509.6947090625763	
91	495.4910500049591	feedback_window	4	0	10.0	01	0.0	0.0	0.0	0.0	1.0	0.0	0.0	0.7795579433441162	91.0	0.0			509.74034810066223	0.3332970142364502
91	495.82434701919556	ITI_window	5	0	24.0	01	0.0	0.0	0.0	0.0	1.0	0.0	0.0	0.7795579433441162	91.0	0.0			510.0736451148987	0.7582659721374512
92	496.582612991333	blockStart	0	-1	0.0	01	0.0	0.0	1.0	0.0	-1.0	0.0	0.0	-1.0	92.0	-1.0			510.83191108703613	0.002604961395263672
92	496.58521795272827	baseline_window	1	-1	19.0	01	0.0	0.0	1.0	0.0	-1.0	0.0	0.0	-1.0	92.0	-1.0			510.8345160484314	0.4888119697570801
92	497.07402992248535	stimulus_window	2	-1	7.0	01	0.0	0.0	1.0	0.0	-1.0	0.0	0.0	-1.0	92.0	-1.0			511.3233280181885	0.1918179988861084
92	497.26584792137146	response_window	3	-1	10.0	01	0.0	0.0	1.0	0.0	-1.0	0.0	0.0	-1.0	92.0	-1.0			511.5151460170746	0.2666811943054199
92	497.4946811199188	response	3	0	10						1.0			0.4206511974334717		0.0	3		511.74397921562195	
92	497.5325291156769	feedback_window	4	0	11.0	01	0.0	0.0	1.0	0.0	1.0	0.0	0.0	0.4206511974334717	92.0	0.0			511.78182721138	0.3166768550872803
92	497.84920597076416	ITI_window	5	0	23.0	01	0.0	0.0	1.0	0.0	1.0	0.0	0.0	0.4206511974334717	92.0	0.0			512.0985040664673	0.6834361553192139
93	498.5326421260834	blockStart	0	-1	0.0	01	0.0	1.0	1.0	0.020000000000000004	-1.0	0.0	0.0	-1.0	93.0	-1.0			512.7819402217865	0.0026378631591796875
93	498.53527998924255	baseline_window	1	-1	17.0	01	0.0	1.0	1.0	0.020000000000000004	-1.0	0.0	0.0	-1.0	93.0	-1.0			512.7845780849457	0.4724299907684326
93	499.007709980011	stimulus_window	2	-1	6.0	01	0.0	1.0	1.0	0.020000000000000004	-1.0	0.0	0.0	-1.0	93.0	-1.0			513.2570080757141	0.19165515899658203
93	499.19936513900757	response_window	3	-1	13.0	01	0.0	1.0	1.0	0.020000000000000004	-1.0	0.0	0.0	-1.0	93.0	-1.0			513.4486632347107	0.36681699752807617
93	499.52811098098755	response	3	1	13						1.0			0.5204010009765625		1.0	2		513.7774090766907	
93	499.56618213653564	feedback_window	4	1	9.0	01	0.0	1.0	1.0	0.020000000000000004	1.0	0.0	0.0	0.5204010009765625	93.0	1.0			513.8154802322388	0.30814695358276367
93	499.8743290901184	ITI_window	5	1	19.0	01	0.0	1.0	1.0	0.020000000000000004	1.0	0.0	0.0	0.5204010009765625	93.0	1.0			514.1236271858215	0.6331658363342285
94	500.50749492645264	blockStart	0	-1	0.0	01	0.0	0.0	1.0	0.0	-1.0	0.0	0.0	-1.0	94.0	-1.0			514.7567930221558	0.0026721954345703125
94	500.5101671218872	baseline_window	1	-1	18.0	01	0.0	0.0	1.0	0.0	-1.0	0.0	0.0	-1.0	94.0	-1.0			514.7594652175903	0.489332914352417
94	500.9995000362396	stimulus_window	2	-1	6.0	01	0.0	0.0	1.0	0.0	-1.0	0.0	0.0	-1.0	94.0	-1.0			515.2487981319427	0.1914510726928711
94	501.1909511089325	response_window	3	-1	15.0	01	0.0	0.0	1.0	0.0	-1.0	0.0	0.0	-1.0	94.0	-1.0			515.4402492046356	0.425184965133667
94	501.57827496528625	response	3	0	15						1.0			0.5787749290466309		0.0	3		515.8275730609894	
94	501.61613607406616	feedback_window	4	0	10.0	01	0.0	0.0	1.0	0.0	1.0	0.0	0.0	0.5787749290466309	94.0	0.0			515.8654341697693	0.3333399295806885
94	501.94947600364685	ITI_window	5	0	24.0	01	0.0	0.0	1.0	0.0	1.0	0.0	0.0	0.5787749290466309	94.0	0.0			516.19877409935	0.7999820709228516
95	502.7494580745697	blockStart	0	-1	0.0	01	0.0	0.0	1.0	0.0	-1.0	0.0	0.0	-1.0	95.0	-1.0			516.9987561702728	0.0027060508728027344
95	502.7521641254425	baseline_window	1	-1	18.0	01	0.0	0.0	1.0	0.0	-1.0	0.0	0.0	-1.0	95.0	-1.0			517.0014622211456	0.48034000396728516
95	503.2325041294098	stimulus_window	2	-1	6.0	01	0.0	0.0	1.0	0.0	-1.0	0.0	0.0	-1.0	95.0	-1.0			517.4818022251129	0.20027494430541992
95	503.4327790737152	response_window	3	-1	11.0	01	0.0	0.0	1.0	0.0	-1.0	0.0	0.0	-1.0	95.0	-1.0			517.6820771694183	0.30820703506469727
95	503.7030379772186	response	3	0	11						1.0			0.4705338478088379		0.0	3		517.9523360729218	
95	503.7409861087799	feedback_window	4	0	10.0	01	0.0	0.0	1.0	0.0	1.0	0.0	0.0	0.4705338478088379	95.0	0.0			517.990284204483	0.3333158493041992
95	504.0743019580841	ITI_window	5	0	18.0	01	0.0	0.0	1.0	0.0	1.0	0.0	0.0	0.4705338478088379	95.0	0.0			518.3236000537872	0.5918440818786621
96	504.66614603996277	blockStart	0	-1	0.0	01	0.0	1.0	0.0	0.020000000000000004	-1.0	0.0	0.0	-1.0	96.0	-1.0			518.9154441356659	0.0027320384979248047
96	504.6688780784607	baseline_window	1	-1	19.0	01	0.0	1.0	0.0	0.020000000000000004	-1.0	0.0	0.0	-1.0	96.0	-1.0			518.9181761741638	0.49724292755126953
96	505.16612100601196	stimulus_window	2	-1	6.0	01	0.0	1.0	0.0	0.020000000000000004	-1.0	0.0	0.0	-1.0	96.0	-1.0			519.4154191017151	0.20001697540283203
96	505.3661379814148	response_window	3	-1	40.0	01	0.0	1.0	0.0	0.020000000000000004	-1.0	0.0	0.0	-1.0	96.0	-1.0			519.6154360771179	1.0666699409484863
96	506.39476799964905	response	3	1	40						1.0			1.228646993637085		0.0	4		520.6440660953522	
96	506.4328079223633	feedback_window	4	1	10.0	01	0.0	1.0	0.0	0.020000000000000004	1.0	0.0	0.0	1.228646993637085	96.0	0.0			520.6821060180664	0.3332970142364502
96	506.76610493659973	ITI_window	5	1	19.0	01	0.0	1.0	0.0	0.020000000000000004	1.0	0.0	0.0	1.228646993637085	96.0	0.0			521.0154030323029	0.6334409713745117
97	507.39954590797424	blockStart	0	-1	0.0	01	0.0	1.0	1.0	0.015000000000000003	-1.0	0.0	0.0	-1.0	97.0	-1.0			521.6488440036774	0.0027010440826416016
97	507.4022469520569	baseline_window	1	-1	16.0	01	0.0	1.0	1.0	0.015000000000000003	-1.0	0.0	0.0	-1.0	97.0	-1.0			521.65154504776	0.4553861618041992
97	507.8576331138611	stimulus_window	2	-1	6.0	01	0.0	1.0	1.0	0.015000000000000003	-1.0	0.0	0.0	-1.0	97.0	-1.0			522.1069312095642	0.19217586517333984
97	508.0498089790344	response_window	3	-1	23.0	01	0.0	1.0	1.0	0.015000000000000003	-1.0	0.0	0.0	-1.0	97.0	-1.0			522.2991070747375	0.6578090190887451
97	508.67030000686646	response	3	1	23						1.0			0.8126668930053711		1.0	2		522.9195981025696	
97	508.70761799812317	feedback_window	4	1	10.0	01	0.0	1.0	1.0	0.015000000000000003	1.0	0.0	0.0	0.8126668930053711	97.0	1.0			522.9569160938263	0.3333299160003662
97	509.04094791412354	ITI_window	5	1	26.0	01	0.0	1.0	1.0	0.015000000000000003	1.0	0.0	0.0	0.8126668930053711	97.0	1.0			523.2902460098267	0.8665931224822998
98	509.90754103660583	blockStart	0	-1	0.0	01	0.0	0.0	1.0	0.0	-1.0	0.0	0.0	-1.0	98.0	-1.0			524.156839132309	0.002641916275024414
98	509.91018295288086	baseline_window	1	-1	17.0	01	0.0	0.0	1.0	0.0	-1.0	0.0	0.0	-1.0	98.0	-1.0			524.159481048584	0.4726071357727051
98	510.38279008865356	stimulus_window	2	-1	6.0	01	0.0	0.0	1.0	0.0	-1.0	0.0	0.0	-1.0	98.0	-1.0			524.6320881843567	0.19119000434875488
98	510.5739800930023	response_window	3	-1	14.0	01	0.0	0.0	1.0	0.0	-1.0	0.0	0.0	-1.0	98.0	-1.0			524.8232781887054	0.37548398971557617
98	510.9112539291382	response	3	0	14						1.0			0.5284638404846191		0.0	3		525.1605520248413	
98	510.9494640827179	feedback_window	4	0	10.0	01	0.0	0.0	1.0	0.0	1.0	0.0	0.0	0.5284638404846191	98.0	0.0			525.198762178421	0.3332829475402832
98	511.2827470302582	ITI_window	5	0	27.0	01	0.0	0.0	1.0	0.0	1.0	0.0	0.0	0.5284638404846191	98.0	0.0			525.5320451259613	0.9001998901367188
99	512.1829469203949	blockStart	0	-1	0.0	01	0.0	0.0	0.0	0.0	-1.0	0.0	0.0	-1.0	99.0	-1.0			526.432245016098	0.002701997756958008
99	512.1856489181519	baseline_window	1	-1	18.0	01	0.0	0.0	0.0	0.0	-1.0	0.0	0.0	-1.0	99.0	-1.0			526.434947013855	0.4885830879211426
99	512.674232006073	stimulus_window	2	-1	6.0	01	0.0	0.0	0.0	0.0	-1.0	0.0	0.0	-1.0	99.0	-1.0			526.9235301017761	0.20002412796020508
99	512.8742561340332	response_window	3	-1	7.0	01	0.0	0.0	0.0	0.0	-1.0	0.0	0.0	-1.0	99.0	-1.0			527.1235542297363	0.20000886917114258
99	513.0362589359283	response	3	0	7						1.0			0.3620269298553467		0.0	3		527.2855570316315	
99	513.0742650032043	feedback_window	4	0	10.0	01	0.0	0.0	0.0	0.0	1.0	0.0	0.0	0.3620269298553467	99.0	0.0			527.3235630989075	0.33331298828125
99	513.4075779914856	ITI_window	5	0	29.0	01	0.0	0.0	0.0	0.0	1.0	0.0	0.0	0.3620269298553467	99.0	0.0			527.6568760871887	0.9580221176147461
100	514.3656001091003	blockStart	0	-1	1306.0	01	0.0	1.0	0.0	0.025000000000000005	-1.0	1.0	0.0	-1.0	100.0	-1.0			528.6148982048035	33.74229192733765
100	548.107892036438	baseline_window	1	-1	98.0	01	0.0	1.0	0.0	0.025000000000000005	-1.0	1.0	0.0	-1.0	100.0	-1.0			562.3571901321411	2.5161170959472656
100	550.6240091323853	stimulus_window	2	-1	6.0	01	0.0	1.0	0.0	0.025000000000000005	-1.0	1.0	1.0	-1.0	100.0	-1.0			564.8733072280884	0.19193291664123535
100	550.8159420490265	response_window	3	-1	23.0	01	0.0	1.0	0.0	0.025000000000000005	-1.0	1.0	1.0	-1.0	100.0	-1.0			565.0652401447296	0.6246719360351562
100	551.3956770896912	response	3	1	23						1.0			0.7716679573059082		1.0	2		565.6449751853943	
100	551.4406139850616	feedback_window	4	1	11.0	01	0.0	1.0	0.0	0.025000000000000005	1.0	1.0	1.0	0.7716679573059082	100.0	1.0			565.6899120807648	0.308182954788208
100	551.7487969398499	ITI_window	5	1	21.0	01	0.0	1.0	0.0	0.025000000000000005	1.0	1.0	1.0	0.7716679573059082	100.0	1.0			565.998095035553	0.6668450832366943
101	552.4156420230865	blockStart	0	-1	0.0	01	0.0	0.0	1.0	0.0	-1.0	1.0	0.0	-1.0	101.0	-1.0			566.6649401187897	0.002563953399658203
101	552.4182059764862	baseline_window	1	-1	18.0	01	0.0	0.0	1.0	0.0	-1.0	1.0	0.0	-1.0	101.0	-1.0			566.6675040721893	0.4554760456085205
101	552.8736820220947	stimulus_window	2	-1	8.0	01	0.0	0.0	1.0	0.0	-1.0	1.0	0.0	-1.0	101.0	-1.0			567.1229801177979	0.22510099411010742
101	553.0987830162048	response_window	3	-1	11.0	01	0.0	0.0	1.0	0.0	-1.0	1.0	0.0	-1.0	101.0	-1.0			567.348081111908	0.2918241024017334
101	553.3523440361023	response	3	0	11						1.0			0.47866201400756836		1.0	1		567.6016421318054	
101	553.3906071186066	feedback_window	4	0	10.0	01	0.0	0.0	1.0	0.0	1.0	1.0	0.0		101.0	1.0		0.47866201400756836	567.6399052143097	0.31702589988708496
101	553.7076330184937	ITI_window	5	0	30.0	01	0.0	0.0	1.0	0.0	1.0	1.0	0.0		101.0	1.0		0.47866201400756836	567.9569311141968	0.8327720165252686
102	554.5404050350189	blockStart	0	-1	0.0	01	0.0	1.0	1.0	0.045000000000000005	-1.0	1.0	0.0	-1.0	102.0	-1.0			568.789703130722	0.002722024917602539
102	554.5431270599365	baseline_window	1	-1	18.0	01	0.0	1.0	1.0	0.045000000000000005	-1.0	1.0	0.0	-1.0	102.0	-1.0			568.7924251556396	0.4975090026855469
102	555.0406360626221	stimulus_window	2	-1	6.0	01	0.0	1.0	1.0	0.045000000000000005	-1.0	1.0	0.0	-1.0	102.0	-1.0			569.2899341583252	0.19997286796569824
102	555.2406089305878	response_window	3	-1	7.0	01	0.0	1.0	1.0	0.045000000000000005	-1.0	1.0	0.0	-1.0	102.0	-1.0			569.4899070262909	0.20000815391540527
102	555.4028680324554	response	3	1	7						1.0			0.362231969833374		1.0	2		569.6521661281586	
102	555.4406170845032	feedback_window	4	1	10.0	01	0.0	1.0	1.0	0.045000000000000005	1.0	1.0	0.0	0.362231969833374	102.0	1.0			569.6899151802063	0.3333718776702881
102	555.7739889621735	ITI_window	5	1	22.0	01	0.0	1.0	1.0	0.045000000000000005	1.0	1.0	0.0	0.362231969833374	102.0	1.0			570.0232870578766	0.7330281734466553
103	556.5070171356201	blockStart	0	-1	0.0	01	0.0	1.0	1.0	0.030000000000000006	-1.0	1.0	0.0	-1.0	103.0	-1.0			570.7563152313232	0.0027589797973632812
103	556.5097761154175	baseline_window	1	-1	19.0	01	0.0	1.0	1.0	0.030000000000000006	-1.0	1.0	0.0	-1.0	103.0	-1.0			570.7590742111206	0.4975168704986572
103	557.0072929859161	stimulus_window	2	-1	6.0	01	0.0	1.0	1.0	0.030000000000000006	-1.0	1.0	0.0	-1.0	103.0	-1.0			571.2565910816193	0.19153213500976562
103	557.1988251209259	response_window	3	-1	13.0	01	0.0	1.0	1.0	0.030000000000000006	-1.0	1.0	0.0	-1.0	103.0	-1.0			571.448123216629	0.35026001930236816
103	557.5026400089264	response	3	1	13						1.0			0.4953470230102539		1.0	2		571.7519381046295	
103	557.5490851402283	feedback_window	4	1	10.0	01	0.0	1.0	1.0	0.030000000000000006	1.0	1.0	0.0	0.4953470230102539	103.0	1.0			571.7983832359314	0.33334994316101074
103	557.8824350833893	ITI_window	5	1	24.0	01	0.0	1.0	1.0	0.030000000000000006	1.0	1.0	0.0	0.4953470230102539	103.0	1.0			572.1317331790924	0.8078999519348145
104	558.6903350353241	blockStart	0	-1	0.0	01	0.0	0.0	0.0	0.0	-1.0	1.0	0.0	-1.0	104.0	-1.0			572.9396331310272	0.002641916275024414
104	558.6929769515991	baseline_window	1	-1	18.0	01	0.0	0.0	0.0	0.0	-1.0	1.0	0.0	-1.0	104.0	-1.0			572.9422750473022	0.4975709915161133
104	559.1905479431152	stimulus_window	2	-1	6.0	01	0.0	0.0	0.0	0.0	-1.0	1.0	0.0	-1.0	104.0	-1.0			573.4398460388184	0.19179511070251465
104	559.3823430538177	response_window	3	-1	12.0	01	0.0	0.0	0.0	0.0	-1.0	1.0	0.0	-1.0	104.0	-1.0			573.6316411495209	0.31669187545776367
104	559.6610770225525	response	3	0	12						1.0			0.47052907943725586		0.0	3		573.9103751182556	
104	559.6990349292755	feedback_window	4	0	9.0	01	0.0	0.0	0.0	0.0	1.0	1.0	0.0	0.47052907943725586	104.0	0.0			573.9483330249786	0.30816006660461426
104	560.0071949958801	ITI_window	5	0	21.0	01	0.0	0.0	0.0	0.0	1.0	1.0	0.0	0.47052907943725586	104.0	0.0			574.2564930915833	0.6916899681091309
105	560.6988849639893	blockStart	0	-1	0.0	01	0.0	1.0	0.0	0.030000000000000006	-1.0	1.0	0.0	-1.0	105.0	-1.0			574.9481830596924	0.0027010440826416016
105	560.7015860080719	baseline_window	1	-1	18.0	01	0.0	1.0	0.0	0.030000000000000006	-1.0	1.0	0.0	-1.0	105.0	-1.0			574.950884103775	0.48081111907958984
105	561.1823971271515	stimulus_window	2	-1	6.0	01	0.0	1.0	0.0	0.030000000000000006	-1.0	1.0	0.0	-1.0	105.0	-1.0			575.4316952228546	0.19971585273742676
105	561.3821129798889	response_window	3	-1	10.0	01	0.0	1.0	0.0	0.030000000000000006	-1.0	1.0	0.0	-1.0	105.0	-1.0			575.631411075592	0.2835841178894043
105	561.6274240016937	response	3	1	10						1.0			0.44502687454223633		1.0	2		575.8767220973969	
105	561.6656970977783	feedback_window	4	1	9.0	01	0.0	1.0	0.0	0.030000000000000006	1.0	1.0	0.0	0.44502687454223633	105.0	1.0			575.9149951934814	0.30819201469421387
105	561.9738891124725	ITI_window	5	1	21.0	01	0.0	1.0	0.0	0.030000000000000006	1.0	1.0	0.0	0.44502687454223633	105.0	1.0			576.2231872081757	0.6915748119354248
106	562.665463924408	blockStart	0	-1	0.0	01	0.0	1.0	1.0	0.015000000000000003	-1.0	1.0	0.0	-1.0	106.0	-1.0			576.9147620201111	0.0027191638946533203
106	562.6681830883026	baseline_window	1	-1	18.0	01	0.0	1.0	1.0	0.015000000000000003	-1.0	1.0	0.0	-1.0	106.0	-1.0			576.9174811840057	0.48903703689575195
106	563.1572201251984	stimulus_window	2	-1	6.0	01	0.0	1.0	1.0	0.015000000000000003	-1.0	1.0	0.0	-1.0	106.0	-1.0			577.4065182209015	0.19984984397888184
106	563.3570699691772	response_window	3	-1	14.0	01	0.0	1.0	1.0	0.015000000000000003	-1.0	1.0	0.0	-1.0	106.0	-1.0			577.6063680648804	0.3752729892730713
106	563.6945519447327	response	3	1	14						1.0			0.5373318195343018		1.0	2		577.9438500404358	
106	563.7323429584503	feedback_window	4	1	8.0	01	0.0	1.0	1.0	0.015000000000000003	1.0	1.0	0.0	0.5373318195343018	106.0	1.0			577.9816410541534	0.3500971794128418
