trial_nr	onset	event_type	phase	response	nr_frames	order	soa	key	RT_   0	onset_abs	duration
0	0.024525165557861328	ITI	0		77	VA	64.0			8.22092318534851	1.288822889328003
0	1.3133480548858643	stim	1		72	VA	64.0			9.509746074676514	1.1995799541473389
0	2.512928009033203	response_window	2		65	VA	64.0			10.709326028823853	1.0855441093444824
0	3.564316987991333	response	2	asynchronous		VA	64.0	l	1.0513889789581299	11.760715007781982	
1	3.5984721183776855	ITI	0		54	VA	0.0			11.794870138168335	0.897022008895874
1	4.49549412727356	stim	1		8	VA	0.0			12.691892147064209	0.1333930492401123
1	4.628887176513672	response_window	2		43	VA	0.0			12.825285196304321	0.7194159030914307
1	5.313522100448608	response	2	asynchronous		VA	0.0	l	0.6846349239349365	13.509920120239258	
2	5.3483030796051025	ITI	0		72	VA	2.0			13.544701099395752	1.1964290142059326
2	6.544732093811035	stim	1		10	VA	2.0			14.741130113601685	0.1665349006652832
2	6.711266994476318	response_window	2		23	VA	2.0			14.907665014266968	0.38570594787597656
2	7.062608957290649	response	2	synchronous		VA	2.0	a	0.35134196281433105	15.259006977081299	
3	7.096972942352295	ITI	0		69	VA	2.0			15.293370962142944	1.1997971534729004
3	8.296770095825195	stim	1		10	VA	2.0			16.493168115615845	0.16663098335266113
3	8.463401079177856	response_window	2		22	VA	2.0			16.659799098968506	0.3662688732147217
3	8.79789113998413	response	2	synchronous		VA	2.0	a	0.3344900608062744	16.99428915977478	
4	8.829669952392578	ITI	0		72	AV	2.0			17.026067972183228	1.1996440887451172
4	10.029314041137695	stim	1		10	AV	2.0			18.225712060928345	0.16675591468811035
4	10.196069955825806	response_window	2		27	AV	2.0			18.392467975616455	0.45130205154418945
4	10.614400148391724	response	2	synchronous		AV	2.0	a	0.41833019256591797	18.810798168182373	
5	10.647372007369995	ITI	0		62	VA	64.0			18.843770027160645	1.0317821502685547
5	11.67915415763855	stim	1		72	VA	64.0			19.8755521774292	1.1995899677276611
5	12.878744125366211	response_window	2		12	VA	64.0			21.07514214515686	0.2030019760131836
5	13.046313047409058	response	2	asynchronous		VA	64.0	l	0.16756892204284668	21.242711067199707	
6	13.081746101379395	ITI	0		73	AV	16.0			21.278144121170044	1.2129478454589844
6	14.294693946838379	stim	1		24	AV	16.0			22.49109196662903	0.39997005462646484
6	14.694664001464844	response_window	2		28	AV	16.0			22.891062021255493	0.46953916549682617
6	15.128751039505005	response	2	asynchronous		AV	16.0	l	0.43408703804016113	23.325149059295654	
7	15.16420316696167	ITI	0		61	AV	8.0			23.36060118675232	1.013279914855957
7	16.177483081817627	stim	1		16	AV	8.0			24.373881101608276	0.2663869857788086
7	16.443870067596436	response_window	2		61	AV	8.0			24.640268087387085	1.0198900699615479
7	17.4284610748291	response	2	asynchronous		AV	8.0	l	0.984591007232666	25.62485909461975	
8	17.463760137557983	ITI	0		59	AV	64.0			25.660158157348633	0.9796779155731201
8	18.443438053131104	stim	1		72	AV	64.0			26.639836072921753	1.1996309757232666
8	19.64306902885437	response_window	2		24	AV	64.0			27.83946704864502	0.4026980400085449
8	20.01099395751953	response	2	asynchronous		AV	64.0	l	0.36792492866516113	28.20739197731018	
9	20.045767068862915	ITI	0		56	VA	64.0			28.242165088653564	0.9300949573516846
9	20.9758620262146	stim	1		72	VA	64.0			29.17226004600525	1.1996591091156006
9	22.1755211353302	response_window	2		17	VA	64.0			30.37191915512085	0.28623485565185547
9	22.426607131958008	response	2	asynchronous		VA	64.0	l	0.2510859966278076	30.623005151748657	
10	22.461755990982056	ITI	0		73	AV	16.0			30.658154010772705	1.2133190631866455
10	23.6750750541687	stim	1		24	AV	16.0			31.87147307395935	0.39957189559936523
10	24.074646949768066	response_window	2		59	AV	16.0			32.271044969558716	0.9852490425109863
10	25.025742053985596	response	2	asynchronous		AV	16.0	l	0.9510951042175293	33.222140073776245	
11	25.059895992279053	ITI	0		77	VA	4.0			33.2562940120697	1.2809550762176514
11	26.340851068496704	stim	1		12	VA	4.0			34.53724908828735	0.1996290683746338
11	26.540480136871338	response_window	2		38	VA	4.0			34.73687815666199	0.6353139877319336
11	27.141469955444336	response	2	asynchronous		VA	4.0	l	0.600989818572998	35.337867975234985	
12	27.17579412460327	ITI	0		59	AV	32.0			35.37219214439392	0.9810938835144043
12	28.156888008117676	stim	1		40	AV	32.0			36.353286027908325	0.6663081645965576
12	28.823196172714233	response_window	2		28	AV	32.0			37.01959419250488	0.4683079719543457
12	29.257812976837158	response	2	asynchronous		AV	32.0	l	0.4346168041229248	37.45421099662781	
13	29.29150414466858	ITI	0		55	AV	32.0			37.48790216445923	0.9145858287811279
13	30.206089973449707	stim	1		40	AV	32.0			38.402487993240356	0.6663241386413574
13	30.872414112091064	response_window	2		32	AV	32.0			39.068812131881714	0.5356009006500244
13	31.37360715866089	response	2	asynchronous		AV	32.0	l	0.5011930465698242	39.57000517845154	
14	31.40801501274109	ITI	0		62	VA	16.0			39.60441303253174	1.0306780338287354
14	32.438693046569824	stim	1		24	VA	16.0			40.635091066360474	0.39977097511291504
14	32.83846402168274	response_window	2		34	VA	16.0			41.03486204147339	0.5684590339660645
14	33.37301206588745	response	2	asynchronous		VA	16.0	l	0.5345480442047119	41.5694100856781	
15	33.406923055648804	ITI	0		56	AV	16.0			41.60332107543945	0.9311130046844482
15	34.33803606033325	stim	1		24	AV	16.0			42.5344340801239	0.3998689651489258
15	34.73790502548218	response_window	2		44	AV	16.0			42.93430304527283	0.7352890968322754
15	35.438897132873535	response	2	asynchronous		AV	16.0	l	0.7009921073913574	43.635295152664185	
16	35.47319412231445	ITI	0		77	AV	2.0			43.6695921421051	1.2807929515838623
16	36.753987073898315	stim	1		10	AV	2.0			44.950385093688965	0.16659092903137207
16	36.92057800292969	response_window	2		49	AV	2.0			45.11697602272034	0.8182830810546875
16	37.70487403869629	response	2	synchronous		AV	2.0	a	0.7842960357666016	45.90127205848694	
17	37.738861083984375	ITI	0		78	AV	16.0			45.935259103775024	1.2975070476531982
17	39.03636813163757	stim	1		24	AV	16.0			47.23276615142822	0.3999028205871582
17	39.43627095222473	response_window	2		54	AV	16.0			47.63266897201538	0.9015800952911377
17	40.30408596992493	response	2	asynchronous		AV	16.0	l	0.8678150177001953	48.500483989715576	
18	40.33785104751587	ITI	0		69	VA	4.0			48.53424906730652	1.1478140354156494
18	41.48566508293152	stim	1		12	VA	4.0			49.68206310272217	0.1999049186706543
18	41.68557000160217	response_window	2		26	VA	4.0			49.88196802139282	0.4356241226196289
18	42.086337089538574	response	2	synchronous		VA	4.0	a	0.40076708793640137	50.282735109329224	
19	42.1211941242218	ITI	0		69	AV	64.0			50.31759214401245	1.147101879119873
19	43.268296003341675	stim	1		72	AV	64.0			51.464694023132324	1.1996021270751953
19	44.46789813041687	response_window	2		20	AV	64.0			52.66429615020752	0.3354928493499756
19	44.76908302307129	response	2	asynchronous		AV	64.0	l	0.30118489265441895	52.96548104286194	
20	44.803390979766846	ITI	0		78	VA	2.0			52.999788999557495	1.297159194946289
20	46.100550174713135	stim	1		10	VA	2.0			54.296948194503784	0.16679883003234863
20	46.26734900474548	response_window	2		33	VA	2.0			54.46374702453613	0.552483081817627
20	46.78507208824158	response	2	synchronous		VA	2.0	a	0.5177230834960938	54.98147010803223	
21	46.81983208656311	ITI	0		71	VA	2.0			55.01623010635376	1.1800549030303955
21	47.999886989593506	stim	1		10	VA	2.0			56.196285009384155	0.16640806198120117
21	48.16629505157471	response_window	2		25	VA	2.0			56.362693071365356	0.41922712326049805
21	48.55139899253845	response	2	synchronous		VA	2.0	a	0.3851039409637451	56.7477970123291	
22	48.585522174835205	ITI	0		77	VA	0.0			56.781920194625854	1.2804429531097412
22	49.865965127944946	stim	1		8	VA	0.0			58.062363147735596	0.13328003883361816
22	49.999245166778564	response_window	2		23	VA	0.0			58.195643186569214	0.3851959705352783
22	50.35011696815491	response	2	synchronous		VA	0.0	a	0.3508718013763428	58.54651498794556	
23	50.38444113731384	ITI	0		77	VA	16.0			58.58083915710449	1.28094482421875
23	51.66538596153259	stim	1		24	VA	16.0			59.86178398132324	0.40000200271606445
23	52.06538796424866	response_window	2		33	VA	16.0			60.26178598403931	0.5516691207885742
23	52.58287501335144	response	2	asynchronous		VA	16.0	l	0.5174870491027832	60.77927303314209	
24	52.61705708503723	ITI	0		69	AV	4.0			60.81345510482788	1.1476309299468994
24	53.76468801498413	stim	1		12	AV	4.0			61.96108603477478	0.19984698295593262
24	53.96453499794006	response_window	2		16	AV	4.0			62.16093301773071	0.26921916007995605
24	54.199126958847046	response	2	synchronous		AV	4.0	a	0.23459196090698242	62.395524978637695	
25	54.23375415802002	ITI	0		66	AV	2.0			62.43015217781067	1.0970258712768555
25	55.330780029296875	stim	1		10	AV	2.0			63.527178049087524	0.16655707359313965
25	55.497337102890015	response_window	2		36	AV	2.0			63.693735122680664	0.6019330024719238
25	56.065025091171265	response	2	synchronous		AV	2.0	a	0.56768798828125	64.26142311096191	
26	56.09927010536194	ITI	0		58	AV	32.0			64.29566812515259	0.964439868927002
26	57.06370997428894	stim	1		40	AV	32.0			65.26010799407959	0.6663451194763184
26	57.73005509376526	response_window	2		25	AV	32.0			65.92645311355591	0.4192018508911133
26	58.11467504501343	response	2	synchronous		AV	32.0	a	0.38461995124816895	66.31107306480408	
27	58.14925694465637	ITI	0		68	AV	64.0			66.34565496444702	1.1304421424865723
27	59.279699087142944	stim	1		72	AV	64.0			67.4760971069336	1.1994340419769287
27	60.47913312911987	response_window	2		14	AV	64.0			68.67553114891052	0.2356259822845459
27	60.680442094802856	response	2	asynchronous		AV	64.0	l	0.2013089656829834	68.8768401145935	
28	60.71475911140442	ITI	0		56	VA	4.0			68.91115713119507	0.9307799339294434
28	61.64553904533386	stim	1		12	VA	4.0			69.84193706512451	0.1998898983001709
28	61.84542894363403	response_window	2		26	VA	4.0			70.04182696342468	0.43551111221313477
28	62.246618032455444	response	2	synchronous		VA	4.0	a	0.40118908882141113	70.4430160522461	
29	62.28094005584717	ITI	0		68	AV	4.0			70.47733807563782	1.1306118965148926
29	63.41155195236206	stim	1		12	AV	4.0			71.60794997215271	0.19994711875915527
29	63.611499071121216	response_window	2		27	AV	4.0			71.80789709091187	0.44953489303588867
29	64.0291690826416	response	2	synchronous		AV	4.0	a	0.41767001152038574	72.22556710243225	
30	64.0610339641571	ITI	0		68	AV	16.0			72.25743198394775	1.1331841945648193
30	65.19421815872192	stim	1		24	AV	16.0			73.39061617851257	0.39992380142211914
30	65.59414196014404	response_window	2		24	AV	16.0			73.79053997993469	0.3995649814605713
30	65.96151804924011	response	2	asynchronous		AV	16.0	l	0.36737608909606934	74.15791606903076	
31	65.99370694160461	ITI	0		57	VA	16.0			74.19010496139526	0.9498400688171387
31	66.94354701042175	stim	1		24	VA	16.0			75.1399450302124	0.3998680114746094
31	67.34341502189636	response_window	2		27	VA	16.0			75.53981304168701	0.4517791271209717
31	67.76134300231934	response	2	asynchronous		VA	16.0	l	0.41792798042297363	75.95774102210999	
32	67.79519414901733	ITI	0		61	VA	8.0			75.99159216880798	1.014521837234497
32	68.80971598625183	stim	1		16	VA	8.0			77.00611400604248	0.2664601802825928
32	69.07617616653442	response_window	2		42	VA	8.0			77.27257418632507	0.7023658752441406
32	69.74405097961426	response	2	synchronous		VA	8.0	a	0.667874813079834	77.94044899940491	
33	69.77854204177856	ITI	0		67	VA	2.0			77.97494006156921	1.1137089729309082
33	70.89225101470947	stim	1		10	VA	2.0			79.08864903450012	0.16692805290222168
33	71.0591790676117	response_window	2		25	VA	2.0			79.25557708740234	0.4183011054992676
33	71.44340014457703	response	2	synchronous		VA	2.0	a	0.38422107696533203	79.63979816436768	
34	71.47748017311096	ITI	0		72	AV	2.0			79.67387819290161	1.1976559162139893
34	72.67513608932495	stim	1		10	AV	2.0			80.8715341091156	0.16665387153625488
34	72.8417899608612	response_window	2		30	AV	2.0			81.03818798065186	0.5013630390167236
34	73.30948305130005	response	2	synchronous		AV	2.0	a	0.4676930904388428	81.5058810710907	
35	73.34315299987793	ITI	0		74	AV	32.0			81.53955101966858	1.2313611507415771
35	74.5745141506195	stim	1		40	AV	32.0			82.77091217041016	0.6663169860839844
35	75.24083113670349	response_window	2		32	AV	32.0			83.43722915649414	0.5352168083190918
35	75.7417540550232	response	2	asynchronous		AV	32.0	l	0.5009229183197021	83.93815207481384	
36	75.77604794502258	ITI	0		74	VA	0.0			83.97244596481323	1.230898141860962
36	77.00694608688354	stim	1		8	VA	0.0			85.2033441066742	0.13335299491882324
36	77.14029908180237	response_window	2		34	VA	0.0			85.33669710159302	0.5689170360565186
36	77.67460203170776	response	2	synchronous		VA	0.0	a	0.5343029499053955	85.87100005149841	
37	77.70921611785889	ITI	0		78	VA	16.0			85.90561413764954	1.297050952911377
37	79.00626707077026	stim	1		24	VA	16.0			87.20266509056091	0.39981889724731445
37	79.40608596801758	response_window	2		22	VA	16.0			87.60248398780823	0.3685901165008545
37	79.74067115783691	response	2	asynchronous		VA	16.0	l	0.33458518981933594	87.93706917762756	
38	79.77467608451843	ITI	0		71	VA	8.0			87.97107410430908	1.1809439659118652
38	80.9556200504303	stim	1		16	VA	8.0			89.15201807022095	0.266434907913208
38	81.2220549583435	response_window	2		78	VA	8.0			89.41845297813416	1.3022661209106445
38	82.48975801467896	response	2	synchronous		VA	8.0	a	1.2677030563354492	90.6861560344696	
39	82.52432107925415	ITI	0		63	AV	8.0			90.7207190990448	1.0470340251922607
39	82.60670709609985	response	0			AV	8.0	l		90.8031051158905	
39	83.57135510444641	stim	1		16	AV	8.0			91.76775312423706	0.2667429447174072
39	83.83809804916382	response_window	2		36	AV	8.0			92.03449606895447	0.6012411117553711
39	84.40576410293579	response	2	synchronous		AV	8.0	a	0.5676660537719727	92.60216212272644	
40	84.43933916091919	ITI	0		72	VA	2.0			92.63573718070984	1.1979188919067383
40	85.63725805282593	stim	1		10	VA	2.0			93.83365607261658	0.16644692420959473
40	85.80370497703552	response_window	2		29	VA	2.0			94.00010299682617	0.48526597023010254
40	86.25473499298096	response	2	synchronous		VA	2.0	a	0.45103001594543457	94.4511330127716	
41	86.28897094726562	ITI	0		54	AV	64.0			94.48536896705627	0.8979461193084717
41	87.1869170665741	stim	1		72	AV	64.0			95.38331508636475	1.1995899677276611
41	88.38650703430176	response_window	2		13	AV	64.0			96.58290505409241	0.2191009521484375
41	88.57108211517334	response	2	asynchronous		AV	64.0	l	0.18457508087158203	96.76748013496399	
42	88.6056079864502	ITI	0		77	AV	16.0			96.80200600624084	1.2804391384124756
42	89.88604712486267	stim	1		24	AV	16.0			98.08244514465332	0.39972591400146484
42	90.28577303886414	response_window	2		28	AV	16.0			98.48217105865479	0.4686579704284668
42	90.7204749584198	response	2	asynchronous		AV	16.0	l	0.43470191955566406	98.91687297821045	
43	90.7544310092926	ITI	0		57	VA	0.0			98.95082902908325	0.9475409984588623
43	91.70197200775146	stim	1		8	VA	0.0			99.89837002754211	0.13321900367736816
43	91.83519101142883	response_window	2		22	VA	0.0			100.03158903121948	0.36931300163269043
43	92.16982412338257	response	2	synchronous		VA	0.0	a	0.33463311195373535	100.36622214317322	
44	92.20450401306152	ITI	0		62	VA	16.0			100.40090203285217	1.0302679538726807
44	93.2347719669342	stim	1		24	VA	16.0			101.43116998672485	0.3997840881347656
44	93.63455605506897	response_window	2		32	VA	16.0			101.83095407485962	0.5353639125823975
44	94.13565707206726	response	2	asynchronous		VA	16.0	l	0.501101016998291	102.33205509185791	
45	94.16991996765137	ITI	0		62	VA	4.0			102.36631798744202	1.0307841300964355
45	95.2007040977478	stim	1		12	VA	4.0			103.39710211753845	0.19991588592529297
45	95.4006199836731	response_window	2		51	VA	4.0			103.59701800346375	0.8515050411224365
45	96.21802711486816	response	2	synchronous		VA	4.0	a	0.8174071311950684	104.41442513465881	
46	96.25212502479553	ITI	0		55	AV	16.0			104.44852304458618	0.9145779609680176
46	97.16670298576355	stim	1		24	AV	16.0			105.3631010055542	0.39981818199157715
46	97.56652116775513	response_window	2		27	AV	16.0			105.76291918754578	0.449725866317749
46	97.98442006111145	response	2	asynchronous		AV	16.0	l	0.41789889335632324	106.1808180809021	
47	98.01624703407288	ITI	0		56	VA	2.0			106.21264505386353	0.9331409931182861
47	98.94938802719116	stim	1		10	VA	2.0			107.14578604698181	0.16651391983032227
47	99.11590194702148	response_window	2		43	VA	2.0			107.31229996681213	0.7186291217803955
47	99.80044102668762	response	2	asynchronous		VA	2.0	l	0.6845390796661377	107.99683904647827	
48	99.83453106880188	ITI	0		71	VA	8.0			108.03092908859253	1.180893898010254
48	101.01542496681213	stim	1		16	VA	8.0			109.21182298660278	0.2666771411895752
48	101.28210210800171	response_window	2		98	VA	8.0			109.47850012779236	1.635221004486084
48	102.88284206390381	response	2	synchronous		VA	8.0	a	1.6007399559020996	111.07924008369446	
49	102.9173231124878	ITI	0		70	AV	64.0			111.11372113227844	1.1639080047607422
49	104.08123111724854	stim	1		72	AV	64.0			112.27762913703918	1.1994240283966064
49	105.28065514564514	response_window	2		28	AV	64.0			113.47705316543579	0.4687168598175049
49	105.71529817581177	response	2	asynchronous		AV	64.0	l	0.434643030166626	113.91169619560242	
50	105.74937200546265	ITI	0		61	AV	8.0			113.9457700252533	1.0140430927276611
50	106.76341509819031	stim	1		16	AV	8.0			114.95981311798096	0.26683497428894043
50	107.03025007247925	response_window	2		58	AV	8.0			115.2266480922699	0.9679858684539795
50	107.96433997154236	response	2	synchronous		AV	8.0	a	0.9340898990631104	116.16073799133301	
51	107.99823594093323	ITI	0		65	AV	16.0			116.19463396072388	1.081118106842041
51	109.07935404777527	stim	1		24	AV	16.0			117.27575206756592	0.4000980854034424
51	109.47945213317871	response_window	2		60	AV	16.0			117.67585015296936	1.0018689632415771
51	110.44671297073364	response	2	asynchronous		AV	16.0	l	0.9672608375549316	118.64311099052429	
52	110.48132109642029	ITI	0		54	AV	2.0			118.67771911621094	0.8974699974060059
52	111.3787910938263	stim	1		10	AV	2.0			119.57518911361694	0.16641807556152344
52	111.54520916938782	response_window	2		32	AV	2.0			119.74160718917847	0.5327348709106445
52	112.04640007019043	response	2	synchronous		AV	2.0	a	0.5011909008026123	120.24279808998108	
53	112.07794404029846	ITI	0		70	VA	8.0			120.27434206008911	1.166849136352539
53	113.244793176651	stim	1		16	VA	8.0			121.44119119644165	0.26662492752075195
53	113.51141810417175	response_window	2		46	VA	8.0			121.7078161239624	0.7686760425567627
53	114.24571394920349	response	2	asynchronous		VA	8.0	l	0.7342958450317383	122.44211196899414	
54	114.28009414672852	ITI	0		56	AV	32.0			122.47649216651917	0.9306268692016602
54	115.21072101593018	stim	1		40	AV	32.0			123.40711903572083	0.6665310859680176
54	115.8772521018982	response_window	2		16	AV	32.0			124.07365012168884	0.2684800624847412
54	116.111643075943	response	2	asynchronous		AV	32.0	l	0.2343909740447998	124.30804109573364	
55	116.14573216438293	ITI	0		58	AV	4.0			124.34213018417358	0.9642329216003418
55	117.10996508598328	stim	1		12	AV	4.0			125.30636310577393	0.19988298416137695
55	117.30984807014465	response_window	2		47	AV	4.0			125.5062460899353	0.7848279476165771
55	118.06107997894287	response	2	synchronous		AV	4.0	a	0.7512319087982178	126.25747799873352	
56	118.09467601776123	ITI	0		68	AV	8.0			126.29107403755188	1.1312689781188965
56	119.22594499588013	stim	1		16	AV	8.0			127.42234301567078	0.2667660713195801
56	119.4927110671997	response_window	2		28	AV	8.0			127.68910908699036	0.46614909172058105
56	119.9268970489502	response	2	synchronous		AV	8.0	a	0.4341859817504883	128.12329506874084	
57	119.95886015892029	ITI	0		57	VA	2.0			128.15525817871094	0.9497718811035156
57	120.9086320400238	stim	1		10	VA	2.0			129.10503005981445	0.16663002967834473
57	121.07526206970215	response_window	2		32	VA	2.0			129.2716600894928	0.535275936126709
57	121.57678508758545	response	2	asynchronous		VA	2.0	l	0.5015230178833008	129.7731831073761	
58	121.61053800582886	ITI	0		64	VA	32.0			129.8069360256195	1.0644111633300781
58	122.67494916915894	stim	1		40	VA	32.0			130.87134718894958	0.6662287712097168
58	123.34117794036865	response_window	2		31	VA	32.0			131.5375759601593	0.519118070602417
58	123.82558608055115	response	2	asynchronous		VA	32.0	l	0.4844081401824951	132.0219841003418	
59	123.86029601097107	ITI	0		68	VA	64.0			132.05669403076172	1.1304740905761719
59	124.99077010154724	stim	1		72	VA	64.0			133.1871681213379	1.199491024017334
59	125.95861196517944	response	1			VA	64.0	a		134.1550099849701	
59	126.19026112556458	response_window	2		144	VA	64.0			134.38665914535522	2.3992228507995605
60	128.58948397636414	ITI	0		78	AV	16.0			136.78588199615479	1.2996079921722412
60	129.88909196853638	stim	1		24	AV	16.0			138.08548998832703	0.399852991104126
60	130.2889449596405	response_window	2		34	AV	16.0			138.48534297943115	0.5684041976928711
60	130.82348799705505	response	2	asynchronous		AV	16.0	l	0.5345430374145508	139.0198860168457	
61	130.85734915733337	ITI	0		56	VA	64.0			139.05374717712402	0.9310379028320312
61	131.7883870601654	stim	1		72	VA	64.0			139.98478507995605	1.199402093887329
61	132.98778915405273	response_window	2		25	VA	64.0			141.18418717384338	0.41875791549682617
61	133.37268710136414	response	2	asynchronous		VA	64.0	l	0.38489794731140137	141.56908512115479	
62	133.40654706954956	ITI	0		73	VA	64.0			141.6029450893402	1.2140140533447266
62	134.6205611228943	stim	1		72	VA	64.0			142.81695914268494	1.1998920440673828
62	135.82045316696167	response_window	2		19	VA	64.0			144.01685118675232	0.3195059299468994
62	136.1047601699829	response	2	asynchronous		VA	64.0	l	0.28430700302124023	144.30115818977356	
63	136.13995909690857	ITI	0		71	VA	64.0			144.33635711669922	1.179692029953003
63	137.31965112686157	stim	1		72	VA	64.0			145.51604914665222	1.1998298168182373
63	138.5194809436798	response_window	2		16	VA	64.0			146.71587896347046	0.2684290409088135
63	138.75401902198792	response	2	asynchronous		VA	64.0	l	0.23453807830810547	146.95041704177856	
64	138.78790998458862	ITI	0		63	VA	8.0			146.98430800437927	1.047814130783081
64	139.8357241153717	stim	1		16	VA	8.0			148.03212213516235	0.2663609981536865
64	140.1020851135254	response_window	2		43	VA	8.0			148.29848313331604	0.7188730239868164
64	140.7867419719696	response	2	synchronous		VA	8.0	a	0.6846568584442139	148.98313999176025	
65	140.8209581375122	ITI	0		74	VA	2.0			149.01735615730286	1.2309479713439941
65	142.0519061088562	stim	1		10	VA	2.0			150.24830412864685	0.16617488861083984
65	142.21808099746704	response_window	2		30	VA	2.0			150.4144790172577	0.5021991729736328
65	142.68593502044678	response	2	synchronous		VA	2.0	a	0.46785402297973633	150.88233304023743	
66	142.72028017044067	ITI	0		63	VA	4.0			150.91667819023132	1.0473427772521973
66	143.76762294769287	stim	1		12	VA	4.0			151.96402096748352	0.19988703727722168
66	143.9675099849701	response_window	2		32	VA	4.0			152.16390800476074	0.5350849628448486
66	144.46875500679016	response	2	synchronous		VA	4.0	a	0.5012450218200684	152.6651530265808	
67	144.50259494781494	ITI	0		59	AV	4.0			152.6989929676056	0.9810872077941895
67	145.48368215560913	stim	1		12	AV	4.0			153.68008017539978	0.2000749111175537
67	145.68375706672668	response_window	2		40	AV	4.0			153.88015508651733	0.6686670780181885
67	146.31813597679138	response	2	synchronous		AV	4.0	a	0.6343789100646973	154.51453399658203	
68	146.35242414474487	ITI	0		65	VA	16.0			154.54882216453552	1.0805578231811523
68	147.43298196792603	stim	1		24	VA	16.0			155.62937998771667	0.39986515045166016
68	147.83284711837769	response_window	2		38	VA	16.0			156.02924513816833	0.6355159282684326
68	148.43387508392334	response	2	asynchronous		VA	16.0	l	0.6010279655456543	156.630273103714	
69	148.46836304664612	ITI	0		70	AV	8.0			156.66476106643677	1.1638820171356201
69	149.63224506378174	stim	1		16	AV	8.0			157.8286430835724	0.26708197593688965
69	149.89932703971863	response_window	2		34	AV	8.0			158.09572505950928	0.568195104598999
69	150.4332981109619	response	2	asynchronous		AV	8.0	l	0.5339710712432861	158.62969613075256	
70	150.46752214431763	ITI	0		57	VA	4.0			158.66392016410828	0.9475469589233398
70	151.41506910324097	stim	1		12	VA	4.0			159.61146712303162	0.20007085800170898
70	151.61513996124268	response_window	2		46	VA	4.0			159.81153798103333	0.7685689926147461
70	152.34935307502747	response	2	synchronous		VA	4.0	a	0.73421311378479	160.54575109481812	
71	152.38370895385742	ITI	0		76	AV	2.0			160.58010697364807	1.2639050483703613
71	153.64761400222778	stim	1		10	AV	2.0			161.84401202201843	0.16664910316467285
71	153.81426310539246	response_window	2		48	AV	2.0			162.0106611251831	0.8008139133453369
71	154.58222198486328	response	2	synchronous		AV	2.0	a	0.7679588794708252	162.77862000465393	
72	154.6150770187378	ITI	0		66	VA	32.0			162.81147503852844	1.098578929901123
72	155.71365594863892	stim	1		40	VA	32.0			163.91005396842957	0.6665010452270508
72	156.38015699386597	response_window	2		42	VA	32.0			164.57655501365662	0.7020890712738037
72	157.04797196388245	response	2	asynchronous		VA	32.0	l	0.6678149700164795	165.2443699836731	
73	157.08224606513977	ITI	0		64	AV	8.0			165.27864408493042	1.0641710758209229
73	158.1464171409607	stim	1		16	AV	8.0			166.34281516075134	0.2662968635559082
73	158.4127140045166	response_window	2		58	AV	8.0			166.60911202430725	0.9686069488525391
73	159.34722709655762	response	2	synchronous		AV	8.0	a	0.9345130920410156	167.54362511634827	
74	159.38132095336914	ITI	0		69	VA	32.0			167.5777189731598	1.1473441123962402
74	160.52866506576538	stim	1		40	VA	32.0			168.72506308555603	0.6665298938751221
74	161.1951949596405	response_window	2		63	VA	32.0			169.39159297943115	1.051692008972168
74	162.21253299713135	response	2	asynchronous		VA	32.0	l	1.0173380374908447	170.408931016922	
75	162.24688696861267	ITI	0		64	VA	8.0			170.44328498840332	1.0639259815216064
75	163.31081295013428	stim	1		16	VA	8.0			171.50721096992493	0.26670217514038086
75	163.57751512527466	response_window	2		99	VA	8.0			171.7739131450653	1.651810884475708
75	165.1953580379486	response	2	asynchronous		VA	8.0	l	1.6178429126739502	173.39175605773926	
76	165.22932600975037	ITI	0		68	VA	64.0			173.42572402954102	1.130774974822998
76	166.36010098457336	stim	1		72	VA	64.0			174.556499004364	1.199458122253418
76	167.55955910682678	response_window	2		24	VA	64.0			175.75595712661743	0.4022860527038574
76	167.92744398117065	response	2	asynchronous		VA	64.0	l	0.36788487434387207	176.1238420009613	
77	167.96184515953064	ITI	0		65	AV	2.0			176.1582431793213	1.0807459354400635
77	169.0425910949707	stim	1		10	AV	2.0			177.23898911476135	0.16665887832641602
77	169.20924997329712	response_window	2		50	AV	2.0			177.40564799308777	0.8352370262145996
77	170.01001405715942	response	2	synchronous		AV	2.0	a	0.8007640838623047	178.20641207695007	
78	170.04448699951172	ITI	0		59	AV	2.0			178.24088501930237	0.9807839393615723
78	171.0252709388733	stim	1		10	AV	2.0			179.22166895866394	0.16655921936035156
78	171.19183015823364	response_window	2		32	AV	2.0			179.3882281780243	0.5326228141784668
78	171.69305515289307	response	2	synchronous		AV	2.0	a	0.5012249946594238	179.88945317268372	
79	171.7244529724121	ITI	0		58	AV	2.0			179.92085099220276	0.9669699668884277
79	172.69142293930054	stim	1		10	AV	2.0			180.8878209590912	0.16660022735595703
79	172.8580231666565	response_window	2		30	AV	2.0			181.05442118644714	0.5019757747650146
79	173.32539105415344	response	2	synchronous		AV	2.0	a	0.46736788749694824	181.5217890739441	
80	173.3599989414215	ITI	0		75	VA	4.0			181.55639696121216	1.2473011016845703
80	174.60730004310608	stim	1		12	VA	4.0			182.80369806289673	0.20018792152404785
80	174.80748796463013	response_window	2		28	VA	4.0			183.00388598442078	0.46823811531066895
80	175.24157214164734	response	2	synchronous		VA	4.0	a	0.4340841770172119	183.437970161438	
81	175.2757260799408	ITI	0		75	VA	2.0			183.47212409973145	1.2475919723510742
81	176.52331805229187	stim	1		10	VA	2.0			184.71971607208252	0.1667189598083496
81	176.69003701210022	response_window	2		25	VA	2.0			184.88643503189087	0.4184579849243164
81	177.0742151737213	response	2	synchronous		VA	2.0	a	0.38417816162109375	185.27061319351196	
82	177.10849499702454	ITI	0		63	AV	32.0			185.30489301681519	1.0476300716400146
82	178.15612506866455	stim	1		40	AV	32.0			186.3525230884552	0.6662049293518066
82	178.82232999801636	response_window	2		23	AV	32.0			187.018728017807	0.3854551315307617
82	179.17336702346802	response	2	asynchronous		AV	32.0	l	0.35103702545166016	187.36976504325867	
83	179.20778512954712	ITI	0		65	AV	4.0			187.40418314933777	1.0809729099273682
83	180.2887580394745	stim	1		12	AV	4.0			188.48515605926514	0.1999211311340332
83	180.48867917060852	response_window	2		51	AV	4.0			188.68507719039917	0.8525419235229492
83	181.30654001235962	response	2	synchronous		AV	4.0	a	0.8178608417510986	189.50293803215027	
84	181.34122109413147	ITI	0		55	VA	16.0			189.53761911392212	0.9135279655456543
84	182.25474905967712	stim	1		24	VA	16.0			190.45114707946777	0.39986109733581543
84	182.65461015701294	response_window	2		25	VA	16.0			190.8510081768036	0.41877079010009766
84	183.03925395011902	response	2	asynchronous		VA	16.0	l	0.3846437931060791	191.23565196990967	
85	183.07338094711304	ITI	0		62	VA	16.0			191.2697789669037	1.0306642055511475
85	184.10404515266418	stim	1		24	VA	16.0			192.30044317245483	0.39989495277404785
85	184.50394010543823	response_window	2		38	VA	16.0			192.70033812522888	0.6355528831481934
85	185.10486316680908	response	2	synchronous		VA	16.0	a	0.6009230613708496	193.30126118659973	
86	185.13949298858643	ITI	0		65	VA	4.0			193.33589100837708	1.080475091934204
86	186.21996808052063	stim	1		12	VA	4.0			194.41636610031128	0.19982194900512695
86	186.41979002952576	response_window	2		38	VA	4.0			194.6161880493164	0.6330509185791016
86	187.0207769870758	response	2	synchronous		VA	4.0	a	0.6009869575500488	195.21717500686646	
87	187.05284094810486	ITI	0		59	AV	4.0			195.2492389678955	0.983112096786499
87	188.03595304489136	stim	1		12	AV	4.0			196.232351064682	0.19996309280395508
87	188.2359161376953	response_window	2		35	AV	4.0			196.43231415748596	0.5828490257263184
87	188.7873420715332	response	2	synchronous		AV	4.0	a	0.5514259338378906	196.98374009132385	
88	188.81876516342163	ITI	0		62	AV	16.0			197.01516318321228	1.0329909324645996
88	189.85175609588623	stim	1		24	AV	16.0			198.04815411567688	0.4001729488372803
88	190.2519290447235	response_window	2		16	AV	16.0			198.44832706451416	0.2691609859466553
88	190.4864580631256	response	2	asynchronous		AV	16.0	l	0.2345290184020996	198.68285608291626	
89	190.52109003067017	ITI	0		61	VA	16.0			198.71748805046082	1.0138990879058838
89	191.53498911857605	stim	1		24	VA	16.0			199.7313871383667	0.39991188049316406
89	191.9349009990692	response_window	2		19	VA	16.0			200.13129901885986	0.3188941478729248
89	192.21956706047058	response	2	asynchronous		VA	16.0	l	0.2846660614013672	200.41596508026123	
90	192.25379514694214	ITI	0		74	VA	0.0			200.4501931667328	1.2302680015563965
90	193.48406314849854	stim	1		8	VA	0.0			201.68046116828918	0.13306093215942383
90	193.61712408065796	response_window	2		30	VA	0.0			201.8135221004486	0.5023479461669922
90	194.08531498908997	response	2	asynchronous		VA	0.0	l	0.46819090843200684	202.28171300888062	
91	194.11947202682495	ITI	0		77	AV	2.0			202.3158700466156	1.280993938446045
91	195.400465965271	stim	1		10	AV	2.0			203.59686398506165	0.1665050983428955
91	195.5669710636139	response_window	2		37	AV	2.0			203.76336908340454	0.6179718971252441
91	196.1515030860901	response	2	synchronous		AV	2.0	a	0.5845320224761963	204.34790110588074	
92	196.18494296073914	ITI	0		75	VA	0.0			204.38134098052979	1.247776985168457
92	197.4327199459076	stim	1		8	VA	0.0			205.62911796569824	0.1334071159362793
92	197.56612706184387	response_window	2		83	VA	0.0			205.76252508163452	1.384207010269165
92	198.91692209243774	response	2	synchronous		VA	0.0	a	1.350795030593872	207.1133201122284	
93	198.95033407211304	ITI	0		76	VA	8.0			207.1467320919037	1.2651019096374512
93	200.2154359817505	stim	1		16	VA	8.0			208.41183400154114	0.2665140628814697
93	200.48195004463196	response_window	2		35	VA	8.0			208.6783480644226	0.5849220752716064
93	201.03299498558044	response	2	synchronous		VA	8.0	a	0.5510449409484863	209.2293930053711	
94	201.06687211990356	ITI	0		70	VA	0.0			209.2632701396942	1.1645679473876953
94	202.23144006729126	stim	1		8	VA	0.0			210.4278380870819	0.13314199447631836
94	202.36458206176758	response_window	2		41	VA	0.0			210.56098008155823	0.6828649044036865
94	203.0158190727234	response	2	synchronous		VA	0.0	a	0.6512370109558105	211.21221709251404	
95	203.04744696617126	ITI	0		55	AV	8.0			211.2438449859619	0.9166150093078613
95	203.96406197547913	stim	1		16	AV	8.0			212.16045999526978	0.26659417152404785
95	204.23065614700317	response_window	2		33	AV	8.0			212.42705416679382	0.5493957996368408
95	204.74816608428955	response	2	synchronous		AV	8.0	a	0.517509937286377	212.9445641040802	
96	204.78005194664001	ITI	0		62	VA	2.0			212.97644996643066	1.0330650806427002
96	205.81311702728271	stim	1		10	VA	2.0			214.00951504707336	0.16698193550109863
96	205.9800989627838	response_window	2		31	VA	2.0			214.17649698257446	0.5187051296234131
96	206.46439409255981	response	2	asynchronous		VA	2.0	l	0.484295129776001	214.66079211235046	
97	206.49880409240723	ITI	0		72	VA	8.0			214.69520211219788	1.1971640586853027
97	207.69596815109253	stim	1		16	VA	8.0			215.89236617088318	0.26688480377197266
97	207.9628529548645	response_window	2		23	VA	8.0			216.15925097465515	0.3846771717071533
97	208.31389212608337	response	2	asynchronous		VA	8.0	l	0.35103917121887207	216.51029014587402	
98	208.34753012657166	ITI	0		73	VA	32.0			216.5439281463623	1.214576005935669
98	209.56210613250732	stim	1		40	VA	32.0			217.75850415229797	0.6662139892578125
98	210.22832012176514	response_window	2		20	VA	32.0			218.4247181415558	0.33563899993896484
98	210.52976417541504	response	2	asynchronous		VA	32.0	l	0.30144405364990234	218.7261621952057	
99	210.5639591217041	ITI	0		67	AV	32.0			218.76035714149475	1.1142568588256836
99	211.67821598052979	stim	1		40	AV	32.0			219.87461400032043	0.6662590503692627
99	212.34447503089905	response_window	2		23	AV	32.0			220.5408730506897	0.38521504402160645
99	212.6956081390381	response	2	synchronous		AV	32.0	a	0.3511331081390381	220.89200615882874	
100	212.72969007492065	ITI	0		69	AV	32.0			220.9260880947113	1.1477329730987549
100	213.8774230480194	stim	1		40	AV	32.0			222.07382106781006	0.666374921798706
100	214.54379796981812	response_window	2		22	AV	32.0			222.74019598960876	0.3691990375518799
100	214.87850093841553	response	2	asynchronous		AV	32.0	l	0.3347029685974121	223.07489895820618	
101	214.91299700737	ITI	0		66	AV	16.0			223.10939502716064	1.0969760417938232
101	216.00997304916382	stim	1		24	AV	16.0			224.20637106895447	0.39954495429992676
101	216.40951800346375	response_window	2		22	AV	16.0			224.6059160232544	0.3689761161804199
101	216.74451208114624	response	2	asynchronous		AV	16.0	l	0.3349940776824951	224.9409101009369	
102	216.77849411964417	ITI	0		63	VA	8.0			224.97489213943481	1.0475959777832031
102	217.82609009742737	stim	1		16	VA	8.0			226.02248811721802	0.26636695861816406
102	218.09245705604553	response_window	2		25	VA	8.0			226.28885507583618	0.41899895668029785
102	218.47701406478882	response	2	synchronous		VA	8.0	a	0.38455700874328613	226.67341208457947	
103	218.51145601272583	ITI	0		78	AV	64.0			226.70785403251648	1.2972850799560547
103	219.80874109268188	stim	1		72	AV	64.0			228.00513911247253	1.199388027191162
103	221.00812911987305	response_window	2		13	AV	64.0			229.2045271396637	0.2183220386505127
103	221.1925971508026	response	2	asynchronous		AV	64.0	l	0.18446803092956543	229.38899517059326	
104	221.22645115852356	ITI	0		71	VA	64.0			229.4228491783142	1.1812009811401367
104	222.4076521396637	stim	1		72	VA	64.0			230.60405015945435	1.1997358798980713
104	223.60738801956177	response_window	2		13	VA	64.0			231.80378603935242	0.21910595893859863
104	223.79194617271423	response	2	asynchronous		VA	64.0	l	0.18455815315246582	231.98834419250488	
105	223.82649397850037	ITI	0		65	AV	2.0			232.02289199829102	1.0804760456085205
105	224.9069700241089	stim	1		10	AV	2.0			233.10336804389954	0.16660094261169434
105	225.07357096672058	response_window	2		35	AV	2.0			233.26996898651123	0.5849571228027344
105	225.62451815605164	response	2	synchronous		AV	2.0	a	0.5509471893310547	233.82091617584229	
106	225.65852808952332	ITI	0		78	VA	16.0			233.85492610931396	1.2977349758148193
106	226.95626306533813	stim	1		24	VA	16.0			235.15266108512878	0.39975595474243164
106	227.35601902008057	response_window	2		39	VA	16.0			235.55241703987122	0.6526370048522949
106	227.9735300540924	response	2	asynchronous		VA	16.0	l	0.6175110340118408	236.16992807388306	
107	228.00865602493286	ITI	0		62	AV	4.0			236.2050540447235	1.030277967453003
107	229.03893399238586	stim	1		12	AV	4.0			237.2353320121765	0.20003199577331543
107	229.23896598815918	response_window	2		45	AV	4.0			237.43536400794983	0.7519149780273438
107	229.9563479423523	response	2	synchronous		AV	4.0	a	0.7173819541931152	238.15274596214294	
108	229.99088096618652	ITI	0		60	VA	0.0			238.18727898597717	0.9974391460418701
108	230.9883201122284	stim	1		8	VA	0.0			239.18471813201904	0.13334989547729492
108	231.1216700077057	response_window	2		49	VA	0.0			239.31806802749634	0.8185200691223145
108	231.90604996681213	response	2	synchronous		VA	0.0	a	0.7843799591064453	240.10244798660278	
109	231.940190076828	ITI	0		59	AV	32.0			240.13658809661865	0.980781078338623
109	232.92097115516663	stim	1		40	AV	32.0			241.11736917495728	0.6665480136871338
109	233.58751916885376	response_window	2		16	AV	32.0			241.7839171886444	0.26859593391418457
109	233.82208895683289	response	2	asynchronous		AV	32.0	l	0.23456978797912598	242.01848697662354	
110	233.85611510276794	ITI	0		71	VA	64.0			242.0525131225586	1.1807968616485596
110	235.0369119644165	stim	1		72	VA	64.0			243.23330998420715	1.1995961666107178
110	236.23650813102722	response_window	2		12	VA	64.0			244.43290615081787	0.2019519805908203
110	236.40440106391907	response	2	asynchronous		VA	64.0	l	0.1678929328918457	244.60079908370972	
111	236.43846011161804	ITI	0		59	VA	4.0			244.6348581314087	0.9809529781341553
111	237.4194130897522	stim	1		12	VA	4.0			245.61581110954285	0.1999809741973877
111	237.61939406394958	response_window	2		50	VA	4.0			245.81579208374023	0.8347809314727783
111	238.42049503326416	response	2	synchronous		VA	4.0	a	0.8011009693145752	246.6168930530548	
112	238.45417499542236	ITI	0		65	VA	2.0			246.650573015213	1.081294059753418
112	239.53546905517578	stim	1		10	VA	2.0			247.73186707496643	0.16656804084777832
112	239.70203709602356	response_window	2		57	VA	2.0			247.8984351158142	0.9521679878234863
112	240.6196961402893	response	2	synchronous		VA	2.0	a	0.9176590442657471	248.81609416007996	
113	240.65420508384705	ITI	0		57	VA	16.0			248.8506031036377	0.9471518993377686
113	241.60135698318481	stim	1		24	VA	16.0			249.79775500297546	0.3998279571533203
113	242.00118494033813	response_window	2		35	VA	16.0			250.19758296012878	0.585468053817749
113	242.55240106582642	response	2	asynchronous		VA	16.0	l	0.5512161254882812	250.74879908561707	
114	242.58665299415588	ITI	0		61	VA	0.0			250.78305101394653	1.01419997215271
114	243.6008529663086	stim	1		8	VA	0.0			251.79725098609924	0.1329820156097412
114	243.73383498191833	response_window	2		89	VA	0.0			251.93023300170898	1.4856371879577637
114	245.18464303016663	response	2	asynchronous		VA	0.0	l	1.450808048248291	253.38104104995728	
115	245.2194721698761	ITI	0		72	AV	8.0			253.41587018966675	1.196964979171753
115	246.41643714904785	stim	1		16	AV	8.0			254.6128351688385	0.2665278911590576
115	246.6829650402069	response_window	2		30	AV	8.0			254.87936305999756	0.502918004989624
115	247.15060305595398	response	2	synchronous		AV	8.0	a	0.4676380157470703	255.34700107574463	
116	247.18588304519653	ITI	0		65	AV	64.0			255.38228106498718	1.0800039768218994
116	248.26588702201843	stim	1		72	AV	64.0			256.4622850418091	1.1995680332183838
116	249.46545505523682	response_window	2		12	AV	64.0			257.66185307502747	0.20145511627197266
116	249.6333200931549	response	2	asynchronous		AV	64.0	l	0.16786503791809082	257.82971811294556	
117	249.6669101715088	ITI	0		63	VA	4.0			257.86330819129944	1.0480258464813232
117	250.7149360179901	stim	1		12	VA	4.0			258.91133403778076	0.19990015029907227
117	250.91483616828918	response_window	2		45	VA	4.0			259.11123418807983	0.752126932144165
117	251.63260912895203	response	2	asynchronous		VA	4.0	l	0.7177729606628418	259.8290071487427	
118	251.66696310043335	ITI	0		71	VA	32.0			259.863361120224	1.1805598735809326
118	252.84752297401428	stim	1		40	VA	32.0			261.04392099380493	0.66646409034729
118	253.51398706436157	response_window	2		60	VA	32.0			261.7103850841522	1.0015089511871338
118	254.4816870689392	response	2	asynchronous		VA	32.0	l	0.9677000045776367	262.67808508872986	
119	254.5154960155487	ITI	0		63	AV	16.0			262.71189403533936	1.0476391315460205
119	255.56313514709473	stim	1		24	AV	16.0			263.7595331668854	0.3999500274658203
119	255.96308517456055	response_window	2		26	AV	16.0			264.1594831943512	0.43393778800964355
119	256.3640489578247	response	2	synchronous		AV	16.0	a	0.40096378326416016	264.56044697761536	
120	256.3970229625702	ITI	0		67	AV	64.0			264.59342098236084	1.1155991554260254
120	257.5126221179962	stim	1		72	AV	64.0			265.70902013778687	1.1993908882141113
120	258.7120130062103	response_window	2		13	AV	64.0			266.908411026001	0.2185821533203125
120	258.89685702323914	response	2	asynchronous		AV	64.0	l	0.1848440170288086	267.0932550430298	
121	258.93059515953064	ITI	0		74	VA	16.0			267.1269931793213	1.2312757968902588
121	260.1618709564209	stim	1		24	VA	16.0			268.35826897621155	0.3995401859283447
121	260.56141114234924	response_window	2		62	VA	16.0			268.7578091621399	1.035498857498169
121	261.5627591609955	response	2	asynchronous		VA	16.0	l	1.0013480186462402	269.75915718078613	
122	261.5969099998474	ITI	0		73	VA	64.0			269.79330801963806	1.2140569686889648
122	262.8109669685364	stim	1		72	VA	64.0			271.007364988327	1.1996262073516846
122	264.01059317588806	response_window	2		20	VA	64.0			272.2069911956787	0.3352499008178711
122	264.3115510940552	response	2	asynchronous		VA	64.0	l	0.30095791816711426	272.5079491138458	
123	264.34584307670593	ITI	0		56	AV	2.0			272.5422410964966	0.930927038192749
123	265.2767701148987	stim	1		10	AV	2.0			273.47316813468933	0.16652703285217285
123	265.44329714775085	response_window	2		46	AV	2.0			273.6396951675415	0.76885986328125
123	266.1775131225586	response	2	synchronous		AV	2.0	a	0.7342159748077393	274.37391114234924	
124	266.2121570110321	ITI	0		75	AV	32.0			274.40855503082275	1.246999979019165
124	267.45915699005127	stim	1		40	AV	32.0			275.6555550098419	0.6665370464324951
124	268.12569403648376	response_window	2		18	AV	32.0			276.3220920562744	0.3023080825805664
124	268.3936381340027	response	2	asynchronous		AV	32.0	l	0.2679440975189209	276.59003615379333	
125	268.42800211906433	ITI	0		74	VA	32.0			276.624400138855	1.2306318283081055
125	269.65863394737244	stim	1		40	VA	32.0			277.8550319671631	0.6664471626281738
125	270.3250811100006	response_window	2		33	VA	32.0			278.52147912979126	0.5519578456878662
125	270.84279108047485	response	2	asynchronous		VA	32.0	l	0.5177099704742432	279.0391891002655	
126	270.8770389556885	ITI	0		66	VA	8.0			279.0734369754791	1.0972871780395508
126	271.974326133728	stim	1		16	VA	8.0			280.1707241535187	0.26659083366394043
126	272.24091696739197	response_window	2		91	VA	8.0			280.4373149871826	1.5185751914978027
126	273.72508096694946	response	2	asynchronous		VA	8.0	l	1.4841639995574951	281.9214789867401	
127	273.75949215888977	ITI	0		75	VA	4.0			281.9558901786804	1.2472598552703857
127	275.00675201416016	stim	1		12	VA	4.0			283.2031500339508	0.19988203048706055
127	275.2066340446472	response_window	2		49	VA	4.0			283.40303206443787	0.8193309307098389
127	275.9912459850311	response	2	synchronous		VA	4.0	a	0.7846119403839111	284.1876440048218	
128	276.02596497535706	ITI	0		76	VA	64.0			284.2223629951477	1.2634310722351074
128	277.28939604759216	stim	1		72	VA	64.0			285.4857940673828	1.1995229721069336
128	278.4889190196991	response_window	2		22	VA	64.0			286.68531703948975	0.36858415603637695
128	278.8242070674896	response	2	asynchronous		VA	64.0	l	0.33528804779052734	287.0206050872803	
129	278.8575031757355	ITI	0		62	AV	32.0			287.0539011955261	1.0309507846832275
129	279.8884539604187	stim	1		40	AV	32.0			288.08485198020935	0.6663670539855957
129	280.5548210144043	response_window	2		61	AV	32.0			288.75121903419495	1.0158560276031494
129	281.55168294906616	response	2	asynchronous		AV	32.0	l	0.9968619346618652	289.7480809688568	
130	281.57067704200745	ITI	0		62	AV	2.0			289.7670750617981	1.0334789752960205
130	282.60415601730347	stim	1		10	AV	2.0			290.8005540370941	0.16672897338867188
130	282.77088499069214	response_window	2		44	AV	2.0			290.9672830104828	0.7354609966278076
130	283.4719099998474	response	2	synchronous		AV	2.0	a	0.7010250091552734	291.66830801963806	
131	283.50634598731995	ITI	0		62	AV	2.0			291.7027440071106	1.0305190086364746
131	284.5368649959564	stim	1		10	AV	2.0			292.73326301574707	0.16638803482055664
131	284.703253030777	response_window	2		33	AV	2.0			292.8996510505676	0.5517609119415283
131	285.22111415863037	response	2	synchronous		AV	2.0	a	0.5178611278533936	293.417512178421	
132	285.2550139427185	ITI	0		55	VA	0.0			293.45141196250916	0.9146151542663574
132	286.16962909698486	stim	1		8	VA	0.0			294.3660271167755	0.1331169605255127
132	286.3027460575104	response_window	2		26	VA	0.0			294.499144077301	0.43304991722106934
132	286.70390009880066	response	2	synchronous		VA	0.0	a	0.4011540412902832	294.9002981185913	
133	286.73579597473145	ITI	0		72	VA	4.0			294.9321939945221	1.1999421119689941
133	287.93573808670044	stim	1		12	VA	4.0			296.1321361064911	0.19985389709472656
133	288.13559198379517	response_window	2		37	VA	4.0			296.3319900035858	0.6189639568328857
133	288.72023010253906	response	2	synchronous		VA	4.0	a	0.5846381187438965	296.9166281223297	
134	288.75455594062805	ITI	0		65	VA	0.0			296.9509539604187	1.0803070068359375
134	289.834862947464	stim	1		8	VA	0.0			298.03126096725464	0.13347315788269043
134	289.9683361053467	response_window	2		25	VA	0.0			298.16473412513733	0.4184908866882324
134	290.3525290489197	response	2	synchronous		VA	0.0	a	0.38419294357299805	298.5489270687103	
135	290.3868269920349	ITI	0		77	AV	8.0			298.58322501182556	1.280822992324829
135	291.66764998435974	stim	1		16	AV	8.0			299.8640480041504	0.2666950225830078
135	291.93434500694275	response_window	2		24	AV	8.0			300.1307430267334	0.4022650718688965
135	292.302353143692	response	2	synchronous		AV	8.0	a	0.3680081367492676	300.49875116348267	
136	292.33661007881165	ITI	0		66	VA	8.0			300.5330080986023	1.0973069667816162
136	293.43391704559326	stim	1		16	VA	8.0			301.6303150653839	0.2665131092071533
136	293.7004301548004	response_window	2		24	VA	8.0			301.89682817459106	0.3995018005371094
136	294.0684440135956	response	2	synchronous		VA	8.0	a	0.368013858795166	302.26484203338623	
137	294.0999319553375	ITI	0		78	VA	2.0			302.2963299751282	1.299926996231079
137	295.3998589515686	stim	1		10	VA	2.0			303.59625697135925	0.1667170524597168
137	295.5665760040283	response_window	2		30	VA	2.0			303.76297402381897	0.4992549419403076
137	296.03419399261475	response	2	synchronous		VA	2.0	a	0.4676179885864258	304.2305920124054	
138	296.0658309459686	ITI	0		54	VA	8.0			304.2622289657593	0.9002211093902588
138	296.9660520553589	stim	1		16	VA	8.0			305.16245007514954	0.26650309562683105
138	297.2325551509857	response_window	2		23	VA	8.0			305.42895317077637	0.38277292251586914
138	297.58388805389404	response	2	synchronous		VA	8.0	a	0.3513329029083252	305.7802860736847	
139	297.6153280735016	ITI	0		70	VA	2.0			305.81172609329224	1.166759967803955
139	298.78208804130554	stim	1		10	VA	2.0			306.9784860610962	0.16640710830688477
139	298.9484951496124	response_window	2		25	VA	2.0			307.1448931694031	0.4184849262237549
139	299.33297204971313	response	2	synchronous		VA	2.0	a	0.384476900100708	307.5293700695038	
140	299.3669800758362	ITI	0		61	AV	32.0			307.56337809562683	1.0145010948181152
140	300.3814811706543	stim	1		40	AV	32.0			308.57787919044495	0.6662998199462891
140	301.0477809906006	response_window	2		18	AV	32.0			309.24417901039124	0.30130600929260254
140	301.31588196754456	response	2	asynchronous		AV	32.0	l	0.2681009769439697	309.5122799873352	
141	301.3490869998932	ITI	0		62	AV	4.0			309.54548501968384	1.0316390991210938
141	302.3807260990143	stim	1		12	AV	4.0			310.57712411880493	0.19996404647827148
141	302.58069014549255	response_window	2		33	AV	4.0			310.7770881652832	0.5522518157958984
141	303.0980291366577	response	2	synchronous		AV	4.0	a	0.5173389911651611	311.29442715644836	
142	303.13294196128845	ITI	0		69	AV	16.0			311.3293399810791	1.147104024887085
142	304.28004598617554	stim	1		24	AV	16.0			312.4764440059662	0.39974117279052734
142	304.67978715896606	response_window	2		50	AV	16.0			312.8761851787567	0.8357977867126465
142	305.481076002121	response	2	asynchronous		AV	16.0	l	0.8012888431549072	313.6774740219116	
143	305.5155849456787	ITI	0		76	VA	16.0			313.71198296546936	1.2637591361999512
143	306.77934408187866	stim	1		24	VA	16.0			314.9757421016693	0.3998420238494873
143	307.17918610572815	response_window	2		47	VA	16.0			315.3755841255188	0.7853899002075195
143	307.93027210235596	response	2	asynchronous		VA	16.0	l	0.7510859966278076	316.1266701221466	
144	307.96457600593567	ITI	0		58	AV	64.0			316.1609740257263	0.964055061340332
144	308.928631067276	stim	1		72	AV	64.0			317.12502908706665	1.199660062789917
144	310.1282911300659	response_window	2		29	AV	64.0			318.32468914985657	0.4841768741607666
144	310.57949113845825	response	2	asynchronous		AV	64.0	l	0.451200008392334	318.7758891582489	
145	310.6124680042267	ITI	0		77	AV	4.0			318.80886602401733	1.2817940711975098
145	311.8942620754242	stim	1		12	AV	4.0			320.09066009521484	0.19988703727722168
145	312.0941491127014	response_window	2		70	AV	4.0			320.29054713249207	1.1680419445037842
145	313.22849011421204	response	2	synchronous		AV	4.0	a	1.1343410015106201	321.4248881340027	
146	313.2621910572052	ITI	0		76	VA	4.0			321.45858907699585	1.2646000385284424
146	314.52679109573364	stim	1		12	VA	4.0			322.7231891155243	0.1994459629058838
146	314.7262370586395	response_window	2		63	VA	4.0			322.9226350784302	1.0520069599151611
146	315.74439311027527	response	2	synchronous		VA	4.0	a	1.0181560516357422	323.9407911300659	
147	315.7782440185547	ITI	0		60	VA	64.0			323.97464203834534	0.9976310729980469
147	316.77587509155273	stim	1		72	VA	64.0			324.9722731113434	1.1995270252227783
147	317.9754021167755	response_window	2		22	VA	64.0			326.17180013656616	0.3687419891357422
147	318.30999207496643	response	2	asynchronous		VA	64.0	l	0.33458995819091797	326.5063900947571	
148	318.34414410591125	ITI	0		55	AV	32.0			326.5405421257019	0.9142909049987793
148	319.25843501091003	stim	1		40	AV	32.0			327.4548330307007	0.6665201187133789
148	319.9249551296234	response_window	2		89	AV	32.0			328.12135314941406	1.4855949878692627
148	321.3758370876312	response	2	synchronous		AV	32.0	a	1.4508819580078125	329.5722351074219	
149	321.4105501174927	ITI	0		78	AV	32.0			329.6069481372833	1.2965290546417236
149	322.7070791721344	stim	1		40	AV	32.0			330.90347719192505	0.6664249897003174
149	323.3735041618347	response_window	2		43	AV	32.0			331.56990218162537	0.718796968460083
149	324.0580129623413	response	2	asynchronous		AV	32.0	l	0.6845088005065918	332.25441098213196	
150	324.0923011302948	ITI	0		70	VA	32.0			332.28869915008545	1.1640779972076416
150	325.25637912750244	stim	1		40	VA	32.0			333.4527771472931	0.6664769649505615
150	325.922856092453	response_window	2		38	VA	32.0			334.11925411224365	0.6357948780059814
150	326.52406311035156	response	2	asynchronous		VA	32.0	l	0.6012070178985596	334.7204611301422	
151	326.558650970459	ITI	0		54	VA	4.0			334.75504899024963	0.8971540927886963
151	327.4558050632477	stim	1		12	VA	4.0			335.65220308303833	0.19987106323242188
151	327.6556761264801	response_window	2		46	VA	4.0			335.85207414627075	0.7685718536376953
151	328.3898870944977	response	2	synchronous		VA	4.0	a	0.7342109680175781	336.58628511428833	
152	328.4242479801178	ITI	0		63	VA	32.0			336.62064599990845	1.0472371578216553
152	329.47148513793945	stim	1		40	VA	32.0			337.6678831577301	0.6667189598083496
152	330.1382040977478	response_window	2		24	VA	32.0			338.33460211753845	0.4018979072570801
152	330.5061070919037	response	2	asynchronous		VA	32.0	l	0.3679029941558838	338.70250511169434	
153	330.5401020050049	ITI	0		59	AV	8.0			338.73650002479553	0.9807851314544678
153	331.52088713645935	stim	1		16	AV	8.0			339.71728515625	0.2664988040924072
153	331.78738594055176	response_window	2		37	AV	8.0			339.9837839603424	0.6187071800231934
153	332.3721830844879	response	2	synchronous		AV	8.0	a	0.5847971439361572	340.56858110427856	
154	332.40609312057495	ITI	0		55	VA	2.0			340.6024911403656	0.9141278266906738
154	333.3202209472656	stim	1		10	VA	2.0			341.5166189670563	0.166640043258667
154	333.4868609905243	response_window	2		80	VA	2.0			341.68325901031494	1.3350391387939453
154	334.78768014907837	response	2	synchronous		VA	2.0	a	1.3008191585540771	342.984078168869	
155	334.82190012931824	ITI	0		56	VA	32.0			343.0182981491089	0.9310719966888428
155	335.7529721260071	stim	1		40	VA	32.0			343.94937014579773	0.666363000869751
155	336.41933512687683	response_window	2		33	VA	32.0			344.6157331466675	0.551934003829956
155	336.9370231628418	response	2	asynchronous		VA	32.0	l	0.5176880359649658	345.13342118263245	
156	336.9712691307068	ITI	0		70	VA	4.0			345.16766715049744	1.1642048358917236
156	338.1354739665985	stim	1		12	VA	4.0			346.33187198638916	0.20004010200500488
156	338.3355140686035	response_window	2		66	VA	4.0			346.53191208839417	1.1024529933929443
156	339.4029440879822	response	2	synchronous		VA	4.0	a	1.067430019378662	347.5993421077728	
157	339.43796706199646	ITI	0		70	VA	4.0			347.6343650817871	1.1632730960845947
157	340.60124015808105	stim	1		12	VA	4.0			348.7976381778717	0.19980692863464355
157	340.8010470867157	response_window	2		105	VA	4.0			348.99744510650635	1.7524380683898926
157	342.5185670852661	response	2	synchronous		VA	4.0	a	1.717519998550415	350.71496510505676	
158	342.5534851551056	ITI	0		77	VA	0.0			350.74988317489624	1.2798810005187988
158	343.8333661556244	stim	1		8	VA	0.0			352.02976417541504	0.13344287872314453
158	343.96680903434753	response_window	2		49	VA	0.0			352.1632070541382	0.818648099899292
158	344.7510390281677	response	2	synchronous		VA	0.0	a	0.7842299938201904	352.9474370479584	
159	344.7854571342468	ITI	0		64	AV	4.0			352.9818551540375	1.0640299320220947
159	345.8494870662689	stim	1		12	AV	4.0			354.04588508605957	0.19990897178649902
159	346.0493960380554	response_window	2		65	AV	4.0			354.24579405784607	1.084630012512207
159	347.10019302368164	response	2	synchronous		AV	4.0	a	1.0507969856262207	355.2965910434723	
160	347.1340260505676	ITI	0		55	VA	32.0			355.3304240703583	0.9145519733428955
160	348.0485780239105	stim	1		40	VA	32.0			356.2449760437012	0.6666381359100342
160	348.71521615982056	response_window	2		44	VA	32.0			356.9116141796112	0.7340209484100342
160	349.4159951210022	response	2	asynchronous		VA	32.0	l	0.7007789611816406	357.61239314079285	
161	349.4492371082306	ITI	0		75	VA	8.0			357.64563512802124	1.248610019683838
161	350.69784712791443	stim	1		16	VA	8.0			358.8942451477051	0.26627492904663086
161	350.96412205696106	response_window	2		114	VA	8.0			359.1605200767517	1.9012420177459717
161	352.83157110214233	response	2	asynchronous		VA	8.0	l	1.8674490451812744	361.027969121933	
162	352.86536407470703	ITI	0		64	AV	8.0			361.0617620944977	1.064810037612915
162	353.93017411231995	stim	1		16	AV	8.0			362.1265721321106	0.266571044921875
162	354.1967451572418	response_window	2		35	AV	8.0			362.39314317703247	0.5848598480224609
162	354.7475390434265	response	2	asynchronous		AV	8.0	l	0.5507938861846924	362.94393706321716	
163	354.7816050052643	ITI	0		58	VA	64.0			362.97800302505493	0.9646480083465576
163	355.74625301361084	stim	1		72	VA	64.0			363.9426510334015	1.19948410987854
163	356.9457371234894	response_window	2		41	VA	64.0			365.14213514328003	0.6860198974609375
163	357.59736609458923	response	2	asynchronous		VA	64.0	l	0.6516289710998535	365.7937641143799	
164	357.6317570209503	ITI	0		67	VA	64.0			365.82815504074097	1.1132841110229492
164	358.74504113197327	stim	1		72	VA	64.0			366.9414391517639	1.1996068954467773
164	359.94464802742004	response_window	2		49	VA	64.0			368.1410460472107	0.8189539909362793
164	360.7287549972534	response	2	asynchronous		VA	64.0	l	0.784106969833374	368.92515301704407	
165	360.7636020183563	ITI	0		67	AV	32.0			368.960000038147	1.113887071609497
165	361.8774890899658	stim	1		40	AV	32.0			370.07388710975647	0.6663129329681396
165	362.54380202293396	response_window	2		73	AV	32.0			370.7402000427246	1.218574047088623
165	363.7283160686493	response	2	asynchronous		AV	32.0	l	1.184514045715332	371.92471408843994	
166	363.7623760700226	ITI	0		61	AV	8.0			371.95877408981323	1.0138640403747559
166	364.77624011039734	stim	1		16	AV	8.0			372.972638130188	0.2666208744049072
166	365.04286098480225	response_window	2		27	AV	8.0			373.2392590045929	0.4523751735687256
166	365.4610140323639	response	2	synchronous		AV	8.0	a	0.4181530475616455	373.65741205215454	
167	365.495236158371	ITI	0		68	VA	32.0			373.6916341781616	1.130614995956421
167	366.6258511543274	stim	1		40	VA	32.0			374.82224917411804	0.6663739681243896
167	367.2922251224518	response_window	2		37	VA	32.0			375.48862314224243	0.6192970275878906
167	367.87659215927124	response	2	asynchronous		VA	32.0	l	0.584367036819458	376.0729901790619	
168	367.9115221500397	ITI	0		71	AV	32.0			376.1079201698303	1.1799747943878174
168	369.0914969444275	stim	1		40	AV	32.0			377.28789496421814	0.666607141494751
168	369.75810408592224	response_window	2		31	AV	32.0			377.9545021057129	0.5178358554840088
168	370.24240708351135	response	2	asynchronous		AV	32.0	l	0.48430299758911133	378.438805103302	
169	370.27593994140625	ITI	0		69	AV	32.0			378.4723379611969	1.1481711864471436
169	371.4241111278534	stim	1		40	AV	32.0			379.62050914764404	0.6665658950805664
169	372.09067702293396	response_window	2		63	AV	32.0			380.2870750427246	1.0523350238800049
169	373.10837411880493	response	2	asynchronous		AV	32.0	l	1.0176970958709717	381.3047721385956	
170	373.14301204681396	ITI	0		70	AV	64.0			381.3394100666046	1.16361403465271
170	374.3066260814667	stim	1		72	AV	64.0			382.5030241012573	1.1995949745178223
170	375.5062210559845	response_window	2		31	AV	64.0			383.70261907577515	0.518359899520874
170	375.9906871318817	response	2	asynchronous		AV	64.0	l	0.4844660758972168	384.18708515167236	
171	376.02458095550537	ITI	0		78	AV	4.0			384.220978975296	1.297640085220337
171	377.3222210407257	stim	1		12	AV	4.0			385.51861906051636	0.19988012313842773
171	377.52210116386414	response_window	2		36	AV	4.0			385.7184991836548	0.6014258861541748
171	378.08994793891907	response	2	synchronous		AV	4.0	a	0.5678467750549316	386.2863459587097	
172	378.1235270500183	ITI	0		65	VA	16.0			386.31992506980896	1.0814039707183838
172	379.2049310207367	stim	1		24	VA	16.0			387.40132904052734	0.39983201026916504
172	379.60476303100586	response_window	2		22	VA	16.0			387.8011610507965	0.3663151264190674
172	379.93878698349	response	2	asynchronous		VA	16.0	l	0.33402395248413086	388.13518500328064	
173	379.9710781574249	ITI	0		76	VA	8.0			388.1674761772156	1.2664728164672852
173	381.2375509738922	stim	1		16	VA	8.0			389.43394899368286	0.2665231227874756
173	381.5040740966797	response_window	2		44	VA	8.0			389.70047211647034	0.7346689701080322
173	382.20463705062866	response	2	asynchronous		VA	8.0	l	0.7005629539489746	390.4010350704193	
174	382.2387430667877	ITI	0		65	AV	4.0			390.43514108657837	1.0811240673065186
174	383.31986713409424	stim	1		12	AV	4.0			391.5162651538849	0.19997692108154297
174	383.5198440551758	response_window	2		43	AV	4.0			391.71624207496643	0.718440055847168
174	384.20418405532837	response	2	asynchronous		AV	4.0	l	0.6843400001525879	392.400582075119	
175	384.23828411102295	ITI	0		60	AV	64.0			392.4346821308136	0.9976730346679688
175	385.2359571456909	stim	1		72	AV	64.0			393.43235516548157	1.1995258331298828
175	386.4354829788208	response_window	2		13	AV	64.0			394.63188099861145	0.21895599365234375
175	386.6202299594879	response	2	asynchronous		AV	64.0	l	0.18474698066711426	394.81662797927856	
176	386.65443897247314	ITI	0		61	VA	32.0			394.8508369922638	1.0143110752105713
176	387.6687500476837	stim	1		40	VA	32.0			395.86514806747437	0.6664519309997559
176	388.3352019786835	response_window	2		20	VA	32.0			396.5315999984741	0.3359100818634033
176	388.6364300251007	response	2	asynchronous		VA	32.0	l	0.30122804641723633	396.83282804489136	
177	388.6711120605469	ITI	0		65	VA	2.0			396.8675100803375	1.0802490711212158
177	389.7513611316681	stim	1		10	VA	2.0			397.94775915145874	0.16664481163024902
177	389.91800594329834	response_window	2		37	VA	2.0			398.114403963089	0.6189370155334473
177	390.5025441646576	response	2	synchronous		VA	2.0	a	0.5845382213592529	398.69894218444824	
178	390.5369429588318	ITI	0		77	VA	64.0			398.73334097862244	1.2804040908813477
178	391.81734704971313	stim	1		72	VA	64.0			400.0137450695038	1.1996281147003174
178	393.01697516441345	response_window	2		14	VA	64.0			401.2133731842041	0.23590898513793945
178	393.2180690765381	response	2	asynchronous		VA	64.0	l	0.2010939121246338	401.41446709632874	
179	393.2528841495514	ITI	0		54	VA	0.0			401.44928216934204	0.8969988822937012
179	394.1498830318451	stim	1		8	VA	0.0			402.34628105163574	0.13332104682922363
179	394.2832040786743	response_window	2		53	VA	0.0			402.47960209846497	0.8854720592498779
179	395.1337990760803	response	2	synchronous		VA	0.0	a	0.8505949974060059	403.330197095871	
180	395.1686761379242	ITI	0		64	VA	8.0			403.36507415771484	1.0636639595031738
180	396.23234009742737	stim	1		16	VA	8.0			404.428738117218	0.2665860652923584
180	396.4989261627197	response_window	2		35	VA	8.0			404.6953241825104	0.5857858657836914
180	397.050302028656	response	2	synchronous		VA	8.0	a	0.5513758659362793	405.24670004844666	
181	397.0847120285034	ITI	0		62	VA	0.0			405.28111004829407	1.0304069519042969
181	398.1151189804077	stim	1		8	VA	0.0			406.31151700019836	0.13307809829711914
181	398.24819707870483	response_window	2		31	VA	0.0			406.4445950984955	0.5164530277252197
181	398.73278307914734	response	2	synchronous		VA	0.0	a	0.4845860004425049	406.929181098938	
182	398.76465010643005	ITI	0		66	VA	2.0			406.9610481262207	1.099942922592163
182	399.8645930290222	stim	1		10	VA	2.0			408.06099104881287	0.1663060188293457
182	400.03089904785156	response_window	2		24	VA	2.0			408.2272970676422	0.4025449752807617
182	400.39881801605225	response	2	synchronous		VA	2.0	a	0.3679189682006836	408.5952160358429	
183	400.4334440231323	ITI	0		65	VA	32.0			408.629842042923	1.0805890560150146
183	401.51403307914734	stim	1		40	VA	32.0			409.710431098938	0.6664130687713623
183	402.1804461479187	response_window	2		34	VA	32.0			410.37684416770935	0.5687098503112793
183	402.71480894088745	response	2	asynchronous		VA	32.0	l	0.53436279296875	410.9112069606781	
184	402.74915599823	ITI	0		70	VA	0.0			410.94555401802063	1.1637489795684814
184	403.91290497779846	stim	1		8	VA	0.0			412.1093029975891	0.13344311714172363
184	404.0463480949402	response_window	2		58	VA	0.0			412.24274611473083	0.9689600467681885
184	404.98084807395935	response	2	synchronous		VA	0.0	a	0.934499979019165	413.17724609375	
185	405.0153081417084	ITI	0		70	AV	8.0			413.211706161499	1.1638388633728027
185	406.1791470050812	stim	1		16	AV	8.0			414.3755450248718	0.26641416549682617
185	406.445561170578	response_window	2		39	AV	8.0			414.64195919036865	0.6525897979736328
185	407.0634801387787	response	2	synchronous		AV	8.0	a	0.6179189682006836	415.25987815856934	
186	407.09815096855164	ITI	0		54	AV	16.0			415.2945489883423	0.8968441486358643
186	407.9949951171875	stim	1		24	AV	16.0			416.19139313697815	0.4001610279083252
186	408.3951561450958	response_window	2		61	AV	16.0			416.5915541648865	1.018617868423462
186	409.37934708595276	response	2	synchronous		AV	16.0	a	0.9841909408569336	417.5757451057434	
187	409.4137740135193	ITI	0		65	AV	4.0			417.61017203330994	1.0805001258850098
187	410.4942741394043	stim	1		12	AV	4.0			418.69067215919495	0.19992280006408691
187	410.6941969394684	response_window	2		36	AV	4.0			418.89059495925903	0.6020941734313965
187	411.2618639469147	response	2	synchronous		AV	4.0	a	0.5676670074462891	419.4582619667053	
188	411.2962911128998	ITI	0		65	VA	32.0			419.49268913269043	1.0806150436401367
188	412.3769061565399	stim	1		40	VA	32.0			420.57330417633057	0.6663730144500732
188	413.04327917099	response_window	2		47	VA	32.0			421.23967719078064	0.7849528789520264
188	413.7940480709076	response	2	asynchronous		VA	32.0	l	0.7507688999176025	421.99044609069824	
189	413.828232049942	ITI	0		76	VA	8.0			422.02463006973267	1.2642669677734375
189	415.09249901771545	stim	1		16	VA	8.0			423.2888970375061	0.26656198501586914
189	415.3590610027313	response_window	2		29	VA	8.0			423.555459022522	0.484011173248291
189	415.81031608581543	response	2	synchronous		VA	8.0	a	0.45125508308410645	424.0067141056061	
190	415.8430721759796	ITI	0		58	AV	4.0			424.03947019577026	0.9658429622650146
190	416.80891513824463	stim	1		12	AV	4.0			425.0053131580353	0.19994688034057617
190	417.0088620185852	response_window	2		26	AV	4.0			425.20526003837585	0.43538403511047363
190	417.4099540710449	response	2	synchronous		AV	4.0	a	0.4010920524597168	425.60635209083557	
191	417.4442460536957	ITI	0		57	VA	16.0			425.6406440734863	0.947364091873169
191	418.39161014556885	stim	1		24	VA	16.0			426.5880081653595	0.3997809886932373
191	418.7913911342621	response_window	2		44	VA	16.0			426.98778915405273	0.7351539134979248
191	419.492290019989	response	2	asynchronous		VA	16.0	l	0.7008988857269287	427.68868803977966	
192	419.52654504776	ITI	0		70	AV	4.0			427.72294306755066	1.1644179821014404
192	420.69096302986145	stim	1		12	AV	4.0			428.8873610496521	0.19994497299194336
192	420.8909080028534	response_window	2		28	AV	4.0			429.08730602264404	0.4679250717163086
192	421.3251061439514	response	2	synchronous		AV	4.0	a	0.43419814109802246	429.52150416374207	
193	421.3588330745697	ITI	0		64	AV	64.0			429.55523109436035	1.0647521018981934
193	422.4235851764679	stim	1		72	AV	64.0			430.61998319625854	1.199659824371338
193	423.62324500083923	response_window	2		67	AV	64.0			431.8196430206299	1.1182379722595215
193	424.70738196372986	response	2	asynchronous		AV	64.0	l	1.084136962890625	432.9037799835205	
194	424.74148297309875	ITI	0		62	AV	16.0			432.9378809928894	1.0309040546417236
194	425.7723870277405	stim	1		24	AV	16.0			433.9687850475311	0.39971113204956055
194	426.17209815979004	response_window	2		87	AV	16.0			434.3684961795807	1.4519479274749756
194	427.58987402915955	response	2	synchronous		AV	16.0	a	1.4177758693695068	435.7862720489502	
195	427.624046087265	ITI	0		55	VA	2.0			435.82044410705566	0.914154052734375
195	428.5382001399994	stim	1		10	VA	2.0			436.73459815979004	0.1666398048400879
195	428.7048399448395	response_window	2		51	VA	2.0			436.9012379646301	0.851945161819458
195	429.5222980976105	response	2	synchronous		VA	2.0	a	0.8174581527709961	437.7186961174011	
196	429.55678510665894	ITI	0		65	AV	16.0			437.7531831264496	1.0806808471679688
196	430.6374659538269	stim	1		24	AV	16.0			438.83386397361755	0.39998722076416016
196	431.03745317459106	response_window	2		21	AV	16.0			439.2338511943817	0.3524317741394043
196	431.3552839756012	response	2	asynchronous		AV	16.0	l	0.31783080101013184	439.55168199539185	
197	431.38988494873047	ITI	0		63	AV	8.0			439.5862829685211	1.0470571517944336
197	432.4369421005249	stim	1		16	AV	8.0			440.63334012031555	0.2665219306945801
197	432.7034640312195	response_window	2		45	AV	8.0			440.89986205101013	0.7524211406707764
197	433.42123007774353	response	2	synchronous		AV	8.0	a	0.7177660465240479	441.6176280975342	
198	433.45588517189026	ITI	0		54	VA	32.0			441.6522831916809	0.8968658447265625
198	434.3527510166168	stim	1		40	VA	32.0			442.54914903640747	0.6667280197143555
198	435.0194790363312	response_window	2		41	VA	32.0			443.2158770561218	0.6851630210876465
198	435.6703870296478	response	2	asynchronous		VA	32.0	l	0.6509079933166504	443.8667850494385	
199	435.7046420574188	ITI	0		71	AV	8.0			443.9010400772095	1.1806108951568604
199	436.8852529525757	stim	1		16	AV	8.0			445.08165097236633	0.2666800022125244
199	437.1519329547882	response_window	2		23	AV	8.0			445.34833097457886	0.385120153427124
199	437.50290608406067	response	2	synchronous		AV	8.0	a	0.35097312927246094	445.6993041038513	
200	437.53705310821533	ITI	0		56	VA	64.0			445.733451128006	0.9310128688812256
200	438.46806597709656	stim	1		72	VA	64.0			446.6644639968872	1.199634075164795
200	439.66770005226135	response_window	2		12	VA	64.0			447.864098072052	0.20262694358825684
200	439.83567094802856	response	2	asynchronous		VA	64.0	l	0.16797089576721191	448.0320689678192	
201	439.8703269958496	ITI	0		73	VA	8.0			448.06672501564026	1.213353157043457
201	441.08368015289307	stim	1		16	VA	8.0			449.2800781726837	0.2669198513031006
201	441.35060000419617	response_window	2		88	VA	8.0			449.5469980239868	1.467940092086792
201	442.78515005111694	response	2	synchronous		VA	8.0	a	1.4345500469207764	450.9815480709076	
202	442.81854009628296	ITI	0		69	AV	64.0			451.0149381160736	1.1477360725402832
202	443.96627616882324	stim	1		72	AV	64.0			452.1626741886139	1.199462890625
202	445.16573905944824	response_window	2		13	AV	64.0			453.3621370792389	0.21927094459533691
202	445.35068917274475	response	2	asynchronous		AV	64.0	l	0.1849501132965088	453.5470871925354	
203	445.3850100040436	ITI	0		72	AV	64.0			453.58140802383423	1.1972250938415527
203	446.58223509788513	stim	1		72	AV	64.0			454.7786331176758	1.1994638442993164
203	447.78169894218445	response_window	2		12	AV	64.0			455.9780969619751	0.20299601554870605
203	447.94972801208496	response	2	asynchronous		AV	64.0	l	0.1680290699005127	456.1461260318756	
204	447.98469495773315	ITI	0		67	VA	8.0			456.1810929775238	1.1133451461791992
204	449.09804010391235	stim	1		16	VA	8.0			457.294438123703	0.266542911529541
204	449.3645830154419	response_window	2		51	VA	8.0			457.56098103523254	0.8512661457061768
204	450.18214201927185	response	2	synchronous		VA	8.0	a	0.817559003829956	458.3785400390625	
205	450.21584916114807	ITI	0		66	AV	64.0			458.4122471809387	1.0978729724884033
205	451.3137221336365	stim	1		72	AV	64.0			459.5101201534271	1.1997089385986328
205	452.5134310722351	response_window	2		30	AV	64.0			460.70982909202576	0.502263069152832
205	452.9809250831604	response	2	asynchronous		AV	64.0	l	0.46749401092529297	461.17732310295105	
206	453.01569414138794	ITI	0		67	VA	4.0			461.2120921611786	1.113797903060913
206	454.12949204444885	stim	1		12	VA	4.0			462.3258900642395	0.19995903968811035
206	454.32945108413696	response_window	2		20	VA	4.0			462.5258491039276	0.33567285537719727
206	454.6302909851074	response	2	synchronous		VA	4.0	a	0.300839900970459	462.82668900489807	
207	454.66512393951416	ITI	0		58	AV	16.0			462.8615219593048	0.9638690948486328
207	455.6289930343628	stim	1		24	AV	16.0			463.82539105415344	0.40000009536743164
207	456.0289931297302	response_window	2		21	AV	16.0			464.2253911495209	0.3514869213104248
207	456.3468210697174	response	2	asynchronous		AV	16.0	l	0.3178279399871826	464.54321908950806	
208	456.38048005104065	ITI	0		56	AV	8.0			464.5768780708313	0.9311909675598145
208	457.31167101860046	stim	1		16	AV	8.0			465.5080690383911	0.26636505126953125
208	457.57803606987	response_window	2		39	AV	8.0			465.77443408966064	0.6514019966125488
208	458.1960070133209	response	2	synchronous		AV	8.0	a	0.6179709434509277	466.3924050331116	
209	458.22943806648254	ITI	0		65	AV	4.0			466.4258360862732	1.0816679000854492
209	459.311105966568	stim	1		12	AV	4.0			467.50750398635864	0.19990110397338867
209	459.5110070705414	response_window	2		53	AV	4.0			467.70740509033203	0.8853390216827393
209	460.3621470928192	response	2	synchronous		AV	4.0	a	0.851140022277832	468.55854511260986	
210	460.3963460922241	ITI	0		62	VA	8.0			468.59274411201477	1.0308899879455566
210	461.4272360801697	stim	1		16	VA	8.0			469.6236340999603	0.26644206047058105
210	461.69367814064026	response_window	2		32	VA	8.0			469.8900761604309	0.5356779098510742
210	462.19486594200134	response	2	asynchronous		VA	8.0	l	0.501187801361084	470.391263961792	
211	462.22935605049133	ITI	0		56	AV	32.0			470.425754070282	0.9304840564727783
211	463.1598401069641	stim	1		40	AV	32.0			471.35623812675476	0.6663808822631836
211	463.8262209892273	response_window	2		61	AV	32.0			472.02261900901794	1.0185949802398682
211	464.810250043869	response	2	synchronous		AV	32.0	a	0.9840290546417236	473.00664806365967	
212	464.84481596946716	ITI	0		73	VA	0.0			473.0412139892578	1.2144920825958252
212	466.059308052063	stim	1		8	VA	0.0			474.25570607185364	0.13282990455627441
212	466.19213795661926	response_window	2		29	VA	0.0			474.3885359764099	0.4851841926574707
212	466.64368295669556	response	2	synchronous		VA	0.0	a	0.45154500007629395	474.8400809764862	
213	466.67732214927673	ITI	0		64	AV	2.0			474.8737201690674	1.0642118453979492
213	467.7415339946747	stim	1		10	AV	2.0			475.93793201446533	0.16667699813842773
213	467.9082109928131	response_window	2		37	AV	2.0			476.10460901260376	0.6188371181488037
213	468.4931471347809	response	2	synchronous		AV	2.0	a	0.5849361419677734	476.68954515457153	
214	468.5270481109619	ITI	0		62	VA	4.0			476.72344613075256	1.0306289196014404
214	469.55767703056335	stim	1		12	VA	4.0			477.754075050354	0.19989991188049316
214	469.75757694244385	response_window	2		25	VA	4.0			477.9539749622345	0.4185211658477783
214	470.1424980163574	response	2	synchronous		VA	4.0	a	0.3849210739135742	478.33889603614807	
215	470.1760981082916	ITI	0		62	VA	16.0			478.3724961280823	1.0310678482055664
215	471.2071659564972	stim	1		24	VA	16.0			479.40356397628784	0.39983701705932617
215	471.6070029735565	response_window	2		18	VA	16.0			479.80340099334717	0.299483060836792
215	471.8753819465637	response	2	synchronous		VA	16.0	a	0.26837897300720215	480.07177996635437	
216	471.9064860343933	ITI	0		72	VA	4.0			480.10288405418396	1.1998279094696045
216	473.1063139438629	stim	1		12	VA	4.0			481.30271196365356	0.20015406608581543
216	473.30646800994873	response_window	2		20	VA	4.0			481.5028660297394	0.3343820571899414
216	473.6075191497803	response	2	synchronous		VA	4.0	a	0.30105113983154297	481.8039171695709	
217	473.6408500671387	ITI	0		67	VA	4.0			481.8372480869293	1.1150410175323486
217	474.755891084671	stim	1		12	VA	4.0			482.95228910446167	0.1999058723449707
217	474.955796957016	response_window	2		20	VA	4.0			483.15219497680664	0.3350210189819336
217	475.25697016716003	response	2	synchronous		VA	4.0	a	0.30117321014404297	483.4533681869507	
218	475.2908179759979	ITI	0		75	AV	32.0			483.4872159957886	1.247953176498413
218	476.53877115249634	stim	1		40	AV	32.0			484.735169172287	0.6664009094238281
218	477.20517206192017	response_window	2		13	AV	32.0			485.4015700817108	0.21875500679016113
218	477.38970017433167	response	2	asynchronous		AV	32.0	l	0.18452811241149902	485.5860981941223	
219	477.4239270687103	ITI	0		74	AV	2.0			485.620325088501	1.2306931018829346
219	478.65462017059326	stim	1		10	AV	2.0			486.8510181903839	0.16668391227722168
219	478.8213040828705	response_window	2		40	AV	2.0			487.01770210266113	0.6688539981842041
219	479.45576906204224	response	2	synchronous		AV	2.0	a	0.6344649791717529	487.6521670818329	
220	479.4901580810547	ITI	0		64	AV	64.0			487.68655610084534	1.0638999938964844
220	480.5540580749512	stim	1		72	AV	64.0			488.7504560947418	1.1995139122009277
220	481.7535719871521	response_window	2		17	AV	64.0			489.94997000694275	0.28587818145751953
220	482.00477600097656	response	2	asynchronous		AV	64.0	l	0.2512040138244629	490.2011740207672	
221	482.0394501686096	ITI	0		54	VA	16.0			490.23584818840027	0.89699387550354
221	482.93644404411316	stim	1		24	VA	16.0			491.1328420639038	0.39985013008117676
221	483.33629417419434	response_window	2		40	VA	16.0			491.532692193985	0.6660759449005127
221	483.97064995765686	response	2	asynchronous		VA	16.0	l	0.6343557834625244	492.1670479774475	
222	484.00237011909485	ITI	0		63	AV	2.0			492.1987681388855	1.0503959655761719
222	485.052766084671	stim	1		10	AV	2.0			493.24916410446167	0.1662900447845459
222	485.21905612945557	response_window	2		35	AV	2.0			493.4154541492462	0.5859708786010742
222	485.7701289653778	response	2	synchronous		AV	2.0	a	0.5510728359222412	493.96652698516846	
223	485.80502700805664	ITI	0		60	VA	0.0			494.0014250278473	0.9967401027679443
223	486.8017671108246	stim	1		8	VA	0.0			494.99816513061523	0.13336801528930664
223	486.9351351261139	response_window	2		31	VA	0.0			495.13153314590454	0.5188698768615723
223	487.4197609424591	response	2	synchronous		VA	0.0	a	0.48462581634521484	495.61615896224976	
224	487.45400500297546	ITI	0		60	AV	4.0			495.6504030227661	0.9971530437469482
224	488.4511580467224	stim	1		12	AV	4.0			496.64755606651306	0.19980692863464355
224	488.65096497535706	response_window	2		31	AV	4.0			496.8473629951477	0.5185530185699463
224	489.1354880332947	response	2	synchronous		AV	4.0	a	0.48452305793762207	497.3318860530853	
225	489.169517993927	ITI	0		70	VA	32.0			497.36591601371765	1.1645071506500244
225	490.334025144577	stim	1		40	VA	32.0			498.5304231643677	0.6664237976074219
225	491.00044894218445	response_window	2		19	VA	32.0			499.1968469619751	0.3186521530151367
225	491.28472995758057	response	2	asynchronous		VA	32.0	l	0.28428101539611816	499.4811279773712	
226	491.3191010951996	ITI	0		76	AV	32.0			499.51549911499023	1.264158010482788
226	492.5832591056824	stim	1		40	AV	32.0			500.779657125473	0.6664938926696777
226	493.24975299835205	response_window	2		14	AV	32.0			501.4461510181427	0.23589015007019043
226	493.45073413848877	response	2	asynchronous		AV	32.0	l	0.20098114013671875	501.6471321582794	
227	493.48564314842224	ITI	0		65	AV	16.0			501.6820411682129	1.080354928970337
227	494.5659980773926	stim	1		24	AV	16.0			502.7623960971832	0.39986300468444824
227	494.965861082077	response_window	2		26	AV	16.0			503.1622591018677	0.4339308738708496
227	495.3685920238495	response	2	synchronous		AV	16.0	a	0.40273094177246094	503.56499004364014	
228	495.3997919559479	ITI	0		54	AV	64.0			503.5961899757385	0.8989851474761963
228	496.2987771034241	stim	1		72	AV	64.0			504.4951751232147	1.199497938156128
228	497.4982750415802	response_window	2		16	AV	64.0			505.69467306137085	0.26894712448120117
228	497.7327859401703	response	2	asynchronous		AV	64.0	l	0.2345108985900879	505.92918395996094	
229	497.7672221660614	ITI	0		67	AV	4.0			505.96362018585205	1.1138849258422852
229	498.8811070919037	stim	1		12	AV	4.0			507.07750511169434	0.19983506202697754
229	499.08094215393066	response_window	2		37	AV	4.0			507.2773401737213	0.6189680099487305
229	499.6654260158539	response	2	synchronous		AV	4.0	a	0.5844838619232178	507.86182403564453	
230	499.6999101638794	ITI	0		68	VA	0.0			507.89630818367004	1.130553960800171
230	500.83046412467957	stim	1		8	VA	0.0			509.0268621444702	0.1333329677581787
230	500.96379709243774	response_window	2		36	VA	0.0			509.1601951122284	0.6014139652252197
230	501.5314600467682	response	2	synchronous		VA	0.0	a	0.5676629543304443	509.72785806655884	
231	501.56521105766296	ITI	0		65	AV	2.0			509.7616090774536	1.081204891204834
231	502.6464159488678	stim	1		10	AV	2.0			510.84281396865845	0.1666409969329834
231	502.8130569458008	response_window	2		28	AV	2.0			511.00945496559143	0.4689640998840332
231	503.24757409095764	response	2	synchronous		AV	2.0	a	0.43451714515686035	511.4439721107483	
232	503.2820210456848	ITI	0		72	VA	2.0			511.47841906547546	1.1971549987792969
232	504.4791760444641	stim	1		10	VA	2.0			512.6755740642548	0.1666090488433838
232	504.6457850933075	response_window	2		33	VA	2.0			512.8421831130981	0.5526049137115479
232	505.1636781692505	response	2	synchronous		VA	2.0	a	0.5178930759429932	513.3600761890411	
233	505.19839000701904	ITI	0		74	AV	16.0			513.3947880268097	1.2301080226898193
233	506.42849802970886	stim	1		24	AV	16.0			514.6248960494995	0.39981698989868164
233	506.82831501960754	response_window	2		36	AV	16.0			515.0247130393982	0.6026301383972168
233	507.39620304107666	response	2	synchronous		AV	16.0	a	0.5678880214691162	515.5926010608673	
234	507.43094515800476	ITI	0		74	AV	8.0			515.6273431777954	1.2302429676055908
234	508.66118812561035	stim	1		16	AV	8.0			516.857586145401	0.2661778926849365
234	508.9273660182953	response_window	2		26	AV	8.0			517.1237640380859	0.4360809326171875
234	509.3288631439209	response	2	synchronous		AV	8.0	a	0.40149712562561035	517.5252611637115	
235	509.3634469509125	ITI	0		54	VA	64.0			517.5598449707031	0.897158145904541
235	510.260605096817	stim	1		72	VA	64.0			518.4570031166077	1.1995079517364502
235	511.46011304855347	response_window	2		21	VA	64.0			519.6565110683441	0.3515009880065918
235	511.7776861190796	response	2	asynchronous		VA	64.0	l	0.31757307052612305	519.9740841388702	
236	511.81161403656006	ITI	0		78	VA	64.0			520.0080120563507	1.2981030941009521
236	513.109717130661	stim	1		72	VA	64.0			521.3061151504517	1.1995298862457275
236	514.3092470169067	response_window	2		27	VA	64.0			522.5056450366974	0.4511139392852783
236	514.7272119522095	response	2	asynchronous		VA	64.0	l	0.4179649353027344	522.9236099720001	
237	514.760360956192	ITI	0		66	AV	64.0			522.9567589759827	1.098459005355835
237	515.8588199615479	stim	1		72	AV	64.0			524.0552179813385	1.1994860172271729
237	517.058305978775	response_window	2		27	AV	64.0			525.2547039985657	0.4516940116882324
237	517.4762811660767	response	2	asynchronous		AV	64.0	l	0.41797518730163574	525.6726791858673	
238	517.5099999904633	ITI	0		74	VA	32.0			525.7063980102539	1.2305951118469238
238	518.7405951023102	stim	1		40	VA	32.0			526.9369931221008	0.6665570735931396
238	519.4071521759033	response_window	2		20	VA	32.0			527.603550195694	0.3359827995300293
238	519.7084021568298	response	2	asynchronous		VA	32.0	l	0.30124998092651367	527.9048001766205	
239	519.7431349754333	ITI	0		54	AV	4.0			527.939532995224	0.8972551822662354
239	520.6403901576996	stim	1		12	AV	4.0			528.8367881774902	0.20006299018859863
239	520.8404531478882	response_window	2		22	AV	4.0			529.0368511676788	0.36785101890563965
239	521.1749329566956	response	2	asynchronous		AV	4.0	l	0.33447980880737305	529.3713309764862	
240	521.2083041667938	ITI	0		67	VA	8.0			529.4047021865845	1.114762783050537
240	522.3230669498444	stim	1		16	VA	8.0			530.519464969635	0.26681017875671387
240	522.5898771286011	response_window	2		23	VA	8.0			530.7862751483917	0.38273191452026367
240	522.9411780834198	response	2	synchronous		VA	8.0	a	0.3513009548187256	531.1375761032104	
241	522.9726090431213	ITI	0		68	AV	8.0			531.169007062912	1.1333799362182617
241	524.1059889793396	stim	1		16	AV	8.0			532.3023869991302	0.2665371894836426
241	524.3725261688232	response_window	2		22	AV	8.0			532.5689241886139	0.3694629669189453
241	524.706894159317	response	2	synchronous		AV	8.0	a	0.3343679904937744	532.9032921791077	
242	524.7419891357422	ITI	0		64	VA	32.0			532.9383871555328	1.0632789134979248
242	525.8052680492401	stim	1		40	VA	32.0			534.0016660690308	0.6665520668029785
242	526.4718201160431	response_window	2		20	VA	32.0			534.6682181358337	0.33566999435424805
242	526.773106098175	response	2	asynchronous		VA	32.0	l	0.301285982131958	534.9695041179657	
243	526.8074901103973	ITI	0		74	AV	64.0			535.003888130188	1.2305550575256348
243	528.038045167923	stim	1		72	AV	64.0			536.2344431877136	1.1993699073791504
243	529.2374150753021	response_window	2		61	AV	64.0			537.4338130950928	1.019352912902832
243	530.2219750881195	response	2	asynchronous		AV	64.0	l	0.9845600128173828	538.4183731079102	
244	530.256767988205	ITI	0		54	AV	16.0			538.4531660079956	0.8967480659484863
244	531.1535160541534	stim	1		24	AV	16.0			539.3499140739441	0.39981603622436523
244	531.5533320903778	response_window	2		69	AV	16.0			539.7497301101685	1.1522879600524902
244	532.671117067337	response	2	synchronous		AV	16.0	a	1.1177849769592285	540.8675150871277	
245	532.7056200504303	ITI	0		68	VA	2.0			540.902018070221	1.1303179264068604
245	533.8359379768372	stim	1		10	VA	2.0			542.0323359966278	0.1667320728302002
245	534.0026700496674	response_window	2		62	VA	2.0			542.199068069458	1.0347890853881836
245	535.0034849643707	response	2	synchronous		VA	2.0	a	1.0008149147033691	543.1998829841614	
246	535.0374591350555	ITI	0		60	AV	2.0			543.2338571548462	0.9976089000701904
246	536.0350680351257	stim	1		10	AV	2.0			544.2314660549164	0.16677308082580566
246	536.2018411159515	response_window	2		20	AV	2.0			544.3982391357422	0.33272695541381836
246	536.5030679702759	response	2	synchronous		AV	2.0	a	0.3012268543243408	544.6994659900665	
247	536.5345680713654	ITI	0		78	AV	8.0			544.730966091156	1.3001549243927002
247	537.834722995758	stim	1		16	AV	8.0			546.0311210155487	0.2664949893951416
247	538.1012179851532	response_window	2		20	AV	8.0			546.2976160049438	0.33646202087402344
247	538.4023921489716	response	2	synchronous		AV	8.0	a	0.3011741638183594	546.5987901687622	
248	538.4376800060272	ITI	0		69	VA	0.0			546.6340780258179	1.1462600231170654
248	539.5839400291443	stim	1		8	VA	0.0			547.7803380489349	0.1333460807800293
248	539.7172861099243	response_window	2		25	VA	0.0			547.913684129715	0.4188108444213867
248	540.1016571521759	response	2	synchronous		VA	0.0	a	0.3843710422515869	548.2980551719666	
249	540.1360969543457	ITI	0		75	AV	8.0			548.3324949741364	1.2472751140594482
249	541.3833720684052	stim	1		16	AV	8.0			549.5797700881958	0.26664090156555176
249	541.6500129699707	response_window	2		26	AV	8.0			549.8464109897614	0.43522000312805176
249	542.050971031189	response	2	synchronous		AV	8.0	a	0.4009580612182617	550.2473690509796	
250	542.0852329730988	ITI	0		63	VA	16.0			550.2816309928894	1.0475261211395264
250	543.1327590942383	stim	1		24	VA	16.0			551.3291571140289	0.39965391159057617
250	543.5324130058289	response_window	2		26	VA	16.0			551.7288110256195	0.4330439567565918
250	543.9339101314545	response	2	asynchronous		VA	16.0	l	0.40149712562561035	552.1303081512451	
251	543.9654569625854	ITI	0		64	VA	32.0			552.1618549823761	1.0666911602020264
251	545.0321481227875	stim	1		40	VA	32.0			553.2285461425781	0.6664600372314453
251	545.6986081600189	response_window	2		30	VA	32.0			553.8950061798096	0.5016520023345947
251	546.1662931442261	response	2	asynchronous		VA	32.0	l	0.4676849842071533	554.3626911640167	
252	546.2002601623535	ITI	0		58	VA	32.0			554.3966581821442	0.9645519256591797
252	547.1648120880127	stim	1		40	VA	32.0			555.3612101078033	0.6664540767669678
252	547.8312661647797	response_window	2		14	VA	32.0			556.0276641845703	0.23291683197021484
252	548.0325281620026	response	2	asynchronous		VA	32.0	l	0.2012619972229004	556.2289261817932	
253	548.0641829967499	ITI	0		63	VA	0.0			556.2605810165405	1.0497839450836182
253	549.1139669418335	stim	1		8	VA	0.0			557.3103649616241	0.13323307037353516
253	549.247200012207	response_window	2		52	VA	0.0			557.4435980319977	0.867833137512207
253	550.0811729431152	response	2	synchronous		VA	0.0	a	0.8339729309082031	558.2775709629059	
254	550.1150331497192	ITI	0		62	VA	16.0			558.3114311695099	1.0316569805145264
254	551.1466901302338	stim	1		24	VA	16.0			559.3430881500244	0.4000120162963867
254	551.5467021465302	response_window	2		38	VA	16.0			559.7431001663208	0.634397029876709
254	552.1470561027527	response	2	asynchronous		VA	16.0	l	0.6003539562225342	560.3434541225433	
255	552.1810991764069	ITI	0		63	AV	64.0			560.3774971961975	1.0483179092407227
255	553.2294170856476	stim	1		72	AV	64.0			561.4258151054382	1.1995818614959717
255	554.4289989471436	response_window	2		44	AV	64.0			562.6253969669342	0.7356541156768799
255	555.1300880908966	response	2	asynchronous		AV	64.0	l	0.7010891437530518	563.3264861106873	
256	555.1646530628204	ITI	0		63	VA	16.0			563.3610510826111	1.0468809604644775
256	556.2115340232849	stim	1		24	VA	16.0			564.4079320430756	0.4000680446624756
256	556.6116020679474	response_window	2		37	VA	16.0			564.808000087738	0.6176300048828125
256	557.1960830688477	response	2	asynchronous		VA	16.0	l	0.5844810009002686	565.3924810886383	
257	557.2292320728302	ITI	0		70	VA	64.0			565.4256300926208	1.1650409698486328
257	558.3942730426788	stim	1		72	VA	64.0			566.5906710624695	1.1996910572052002
257	559.593964099884	response_window	2		37	VA	64.0			567.7903621196747	0.6158578395843506
257	560.1778740882874	response	2	synchronous		VA	64.0	a	0.5839099884033203	568.374272108078	
258	560.2098219394684	ITI	0		77	AV	2.0			568.406219959259	1.2831571102142334
258	561.4929790496826	stim	1		10	AV	2.0			569.6893770694733	0.16683292388916016
258	561.6598119735718	response_window	2		66	AV	2.0			569.8562099933624	1.101283073425293
258	562.7272419929504	response	2	synchronous		AV	2.0	a	1.067430019378662	570.9236400127411	
259	562.7610950469971	ITI	0		68	AV	4.0			570.9574930667877	1.1312439441680908
259	563.8923389911652	stim	1		12	AV	4.0			572.0887370109558	0.2000901699066162
259	564.0924291610718	response_window	2		47	AV	4.0			572.2888271808624	0.7849478721618652
259	564.8431861400604	response	2	synchronous		AV	4.0	a	0.7507569789886475	573.0395841598511	
