trial_nr	onset	event_type	phase	response	nr_frames	order	soa	key	correct	RT_   0	onset_abs	duration
0	0.013602018356323242	ITI	0		62	VA	2.0				7.861405849456787	1.0330688953399658
0	1.046670913696289	stim	1		10	VA	2.0				8.894474744796753	0.1665658950805664
0	1.2132368087768555	response_window	2		45	VA	2.0				9.06104063987732	0.7495081424713135
0	1.9400649070739746	response	2	A		VA	2.0	a	0.0	0.7268280982971191	9.787868738174438	
1	1.962744951248169	ITI	0		63	VA	64.0				9.810548782348633	1.0500719547271729
1	3.012816905975342	stim	1		72	VA	64.0				10.860620737075806	1.1995179653167725
1	4.212334871292114	response_window	2		19	VA	64.0				12.060138702392578	0.31966400146484375
1	4.496577978134155	response	2	V		VA	64.0	l	1.0	0.284243106842041	12.34438180923462	
2	4.531998872756958	ITI	0		64	VA	64.0				12.379802703857422	1.0633461475372314
2	5.5953450202941895	stim	1		72	VA	64.0				13.443148851394653	1.1995089054107666
2	6.794853925704956	response_window	2		14	VA	64.0				14.64265775680542	0.2373640537261963
2	6.995859861373901	response	2	V		VA	64.0	l	1.0	0.2010059356689453	14.843663692474365	
3	7.032217979431152	ITI	0		69	VA	8.0				14.880021810531616	1.1455018520355225
3	8.177719831466675	stim	1		16	VA	8.0				16.02552366256714	0.2666339874267578
3	8.444353818893433	response_window	2		45	VA	8.0				16.292157649993896	0.7531352043151855
3	9.162173986434937	response	2	V		VA	8.0	l	1.0	0.7178201675415039	17.0099778175354	
4	9.197489023208618	ITI	0		61	VA	8.0				17.045292854309082	1.0130279064178467
4	10.210516929626465	stim	1		16	VA	8.0				18.05832076072693	0.2666049003601074
4	10.477121829986572	response_window	2		32	VA	8.0				18.324925661087036	0.5326201915740967
4	10.977876901626587	response	2	V		VA	8.0	l	1.0	0.5007550716400146	18.82568073272705	
5	11.009742021560669	ITI	0		54	VA	4.0				18.857545852661133	0.9001338481903076
5	11.909875869750977	stim	1		12	VA	4.0				19.75767970085144	0.19998812675476074
5	12.109863996505737	response_window	2		37	VA	4.0				19.9576678276062	0.6160149574279785
5	12.694293975830078	response	2	V		VA	4.0	l	1.0	0.5844299793243408	20.542097806930542	
6	12.725878953933716	ITI	0		68	AV	16.0				20.57368278503418	1.1333329677581787
6	13.859211921691895	stim	1		24	AV	16.0				21.70701575279236	0.3997969627380371
6	14.259008884429932	response_window	2		81	AV	16.0				22.106812715530396	1.352250099182129
6	15.576483964920044	response	2	A		AV	16.0	a	1.0	1.3174750804901123	23.424287796020508	
7	15.61125898361206	ITI	0		64	AV	8.0				23.459062814712524	1.063572883605957
7	16.674831867218018	stim	1		16	AV	8.0				24.52263569831848	0.2664351463317871
7	16.941267013549805	response_window	2		56	AV	8.0				24.78907084465027	0.9358479976654053
7	17.84264087677002	response	2	A		AV	8.0	a	1.0	0.9013738632202148	25.690444707870483	
8	17.87711501121521	ITI	0		69	AV	64.0				25.724918842315674	1.1469709873199463
8	19.024085998535156	stim	1		72	AV	64.0				26.87188982963562	1.1997268199920654
8	20.22381281852722	response_window	2		15	AV	64.0				28.071616649627686	0.2525210380554199
8	20.44170093536377	response	2	A		AV	64.0	a	1.0	0.21788811683654785	28.289504766464233	
9	20.47633385658264	ITI	0		59	VA	8.0				28.324137687683105	0.9800519943237305
9	21.456385850906372	stim	1		16	VA	8.0				29.304189682006836	0.2668280601501465
9	21.72321391105652	response_window	2		22	VA	8.0				29.571017742156982	0.3688020706176758
9	22.057348012924194	response	2	V		VA	8.0	l	1.0	0.3341341018676758	29.905151844024658	
10	22.092015981674194	ITI	0		78	VA	1.0				29.939819812774658	1.2971889972686768
10	23.38920497894287	stim	1		9	VA	1.0				31.237008810043335	0.15004801750183105
10	23.539252996444702	response_window	2		61	VA	1.0				31.387056827545166	1.01938796043396
10	24.52345085144043	response	2	V		VA	1.0	l	1.0	0.9841978549957275	32.371254682540894	
11	24.558640956878662	ITI	0		62	AV	32.0				32.406444787979126	1.0299408435821533
11	25.588581800460815	stim	1		40	AV	32.0				33.43638563156128	0.6664772033691406
11	26.255059003829956	response_window	2		14	AV	32.0				34.10286283493042	0.234116792678833
11	26.456296920776367	response	2	A		AV	32.0	a	1.0	0.20123791694641113	34.30410075187683	
12	26.48917579650879	ITI	0		67	AV	1.0				34.33697962760925	1.1153700351715088
12	27.604545831680298	stim	1		9	AV	1.0				35.45234966278076	0.14995598793029785
12	27.754501819610596	response_window	2		40	AV	1.0				35.60230565071106	0.6690590381622314
12	28.388877868652344	response	2	A		AV	1.0	a	1.0	0.634376049041748	36.23668169975281	
13	28.423560857772827	ITI	0		55	AV	2.0				36.27136468887329	0.9137849807739258
13	29.337345838546753	stim	1		10	AV	2.0				37.18514966964722	0.16635608673095703
13	29.50370192527771	response_window	2		42	AV	2.0				37.351505756378174	0.7021520137786865
13	30.171729803085327	response	2	A		AV	2.0	a	1.0	0.6680278778076172	38.01953363418579	
14	30.205853939056396	ITI	0		63	AV	4.0				38.05365777015686	1.0472350120544434
14	31.25308895111084	stim	1		12	AV	4.0				39.100892782211304	0.20002985000610352
14	31.453118801116943	response_window	2		41	AV	4.0				39.30092263221741	0.6856851577758789
14	32.10443902015686	response	2	A		AV	4.0	a	1.0	0.651320219039917	39.952242851257324	
15	32.13880395889282	ITI	0		64	AV	4.0				39.986607789993286	1.063748836517334
15	33.202552795410156	stim	1		12	AV	4.0				41.05035662651062	0.20013904571533203
15	33.40269184112549	response_window	2		32	AV	4.0				41.25049567222595	0.5326910018920898
15	33.90384578704834	response	2	V		AV	4.0	l	0.0	0.5011539459228516	41.751649618148804	
16	33.93538284301758	ITI	0		58	AV	16.0				41.78318667411804	0.9668080806732178
16	34.902190923690796	stim	1		24	AV	16.0				42.74999475479126	0.3998088836669922
16	35.30199980735779	response_window	2		54	AV	16.0				43.14980363845825	0.9018881320953369
16	36.16976284980774	response	2	A		AV	16.0	a	1.0	0.8677630424499512	44.0175666809082	
17	36.203887939453125	ITI	0		67	AV	16.0				44.05169177055359	1.114577054977417
17	37.31846499443054	stim	1		24	AV	16.0				45.166268825531006	0.39946579933166504
17	37.71793079376221	response_window	2		18	AV	16.0				45.56573462486267	0.3014850616455078
17	37.98581290245056	response	2	A		AV	16.0	a	1.0	0.2678821086883545	45.833616733551025	
18	38.019415855407715	ITI	0		62	VA	2.0				45.86721968650818	1.0313539505004883
18	39.0507698059082	stim	1		10	VA	2.0				46.89857363700867	0.16636109352111816
18	39.21713089942932	response_window	2		85	VA	2.0				47.064934730529785	1.4188859462738037
18	40.60124492645264	response	2	V		VA	2.0	l	1.0	1.3841140270233154	48.4490487575531	
19	40.636016845703125	ITI	0		58	VA	32.0				48.48382067680359	0.9639501571655273
19	41.59996700286865	stim	1		40	VA	32.0				49.447770833969116	0.6662209033966064
19	42.26618790626526	response_window	2		21	VA	32.0				50.11399173736572	0.35015296936035156
19	42.583324909210205	response	2	V		VA	32.0	l	1.0	0.3171370029449463	50.43112874031067	
20	42.61634087562561	ITI	0		55	AV	1.0				50.464144706726074	0.9161419868469238
20	43.532482862472534	stim	1		9	AV	1.0				51.380286693573	0.14998507499694824
20	43.68246793746948	response_window	2		63	AV	1.0				51.530271768569946	1.051435947418213
20	44.6998770236969	response	2	V		AV	1.0	l	0.0	1.017409086227417	52.54768085479736	
21	44.733903884887695	ITI	0		56	AV	8.0				52.58170771598816	0.9310359954833984
21	45.664939880371094	stim	1		16	AV	8.0				53.51274371147156	0.2666499614715576
21	45.93158984184265	response_window	2		33	AV	8.0				53.779393672943115	0.5511510372161865
21	46.44920802116394	response	2	A		AV	8.0	a	1.0	0.5176181793212891	54.297011852264404	
22	46.48274087905884	ITI	0		62	AV	8.0				54.3305447101593	1.031877040863037
22	47.514617919921875	stim	1		16	AV	8.0				55.36242175102234	0.26654696464538574
22	47.78116488456726	response_window	2		31	AV	8.0				55.628968715667725	0.517333984375
22	48.26578497886658	response	2	A		AV	8.0	a	1.0	0.4846200942993164	56.11358880996704	
23	48.29849886894226	ITI	0		73	AV	1.0				56.146302700042725	1.2154181003570557
23	49.513916969299316	stim	1		9	AV	1.0				57.36172080039978	0.14989995956420898
23	49.663816928863525	response_window	2		47	AV	1.0				57.51162075996399	0.7851419448852539
23	50.41475796699524	response	2	A		AV	1.0	a	1.0	0.7509410381317139	58.2625617980957	
24	50.44895887374878	ITI	0		65	AV	2.0				58.29676270484924	1.0807850360870361
24	51.529743909835815	stim	1		10	AV	2.0				59.37754774093628	0.16679596900939941
24	51.696539878845215	response_window	2		25	AV	2.0				59.54434370994568	0.41922903060913086
24	52.080880880355835	response	2	A		AV	2.0	a	1.0	0.3843410015106201	59.9286847114563	
25	52.115768909454346	ITI	0		65	VA	64.0				59.96357274055481	1.0800979137420654
25	53.19586682319641	stim	1		72	VA	64.0				61.043670654296875	1.1995229721069336
25	54.395389795303345	response_window	2		16	VA	64.0				62.24319362640381	0.266294002532959
25	54.630204916000366	response	2	V		VA	64.0	l	1.0	0.23481512069702148	62.47800874710083	
26	54.661683797836304	ITI	0		62	AV	4.0				62.50948762893677	1.0334980487823486
26	55.69518184661865	stim	1		12	AV	4.0				63.542985677719116	0.19994807243347168
26	55.895129919052124	response_window	2		71	AV	4.0				63.74293375015259	1.1844918727874756
26	57.04577279090881	response	2	A		AV	4.0	a	1.0	1.1506428718566895	64.89357662200928	
27	57.0796217918396	ITI	0		61	VA	8.0				64.92742562294006	1.01460599899292
27	58.09422779083252	stim	1		16	VA	8.0				65.94203162193298	0.26663923263549805
27	58.36086702346802	response_window	2		25	VA	8.0				66.20867085456848	0.4162778854370117
27	58.74557089805603	response	2	V		VA	8.0	l	1.0	0.3847038745880127	66.5933747291565	
28	58.77714490890503	ITI	0		67	VA	4.0				66.6249487400055	1.1164019107818604
28	59.89354681968689	stim	1		12	VA	4.0				67.74135065078735	0.19995999336242676
28	60.093506813049316	response_window	2		82	VA	4.0				67.94131064414978	1.368462085723877
28	61.42768979072571	response	2	V		VA	4.0	l	1.0	1.3341829776763916	69.27549362182617	
29	61.46196889877319	ITI	0		76	VA	16.0				69.30977272987366	1.2634589672088623
29	62.725427865982056	stim	1		24	VA	16.0				70.57323169708252	0.40018606185913086
29	63.12561392784119	response_window	2		34	VA	16.0				70.97341775894165	0.5681850910186768
29	63.66018581390381	response	2	V		VA	16.0	l	1.0	0.5345718860626221	71.50798964500427	
30	63.69379901885986	ITI	0		59	VA	4.0				71.54160284996033	0.9815778732299805
30	64.67537689208984	stim	1		12	VA	4.0				72.52318072319031	0.19973301887512207
30	64.87510991096497	response_window	2		28	VA	4.0				72.72291374206543	0.46869587898254395
30	65.30985283851624	response	2	V		VA	4.0	l	1.0	0.43474292755126953	73.1576566696167	
31	65.34380578994751	ITI	0		68	VA	16.0				73.19160962104797	1.130836009979248
31	66.47464179992676	stim	1		24	VA	16.0				74.32244563102722	0.4000680446624756
31	66.87470984458923	response_window	2		30	VA	16.0				74.7225136756897	0.5018410682678223
31	67.34233784675598	response	2	V		VA	16.0	l	1.0	0.46762800216674805	75.19014167785645	
32	67.37655091285706	ITI	0		70	VA	8.0				75.22435474395752	1.164341926574707
32	68.54089283943176	stim	1		16	VA	8.0				76.38869667053223	0.26653003692626953
32	68.80742287635803	response_window	2		22	VA	8.0				76.6552267074585	0.36831092834472656
32	69.14178490638733	response	2	V		VA	8.0	l	1.0	0.3343620300292969	76.9895887374878	
33	69.17573380470276	ITI	0		60	AV	64.0				77.02353763580322	0.9977200031280518
33	70.17345380783081	stim	1		72	AV	64.0				78.02125763893127	1.1994311809539795
33	71.37288498878479	response_window	2		16	AV	64.0				79.22068881988525	0.2687258720397949
33	71.60779190063477	response	2	A		AV	64.0	a	1.0	0.23490691184997559	79.45559573173523	
34	71.64161086082458	ITI	0		68	AV	4.0				79.48941469192505	1.1312241554260254
34	72.77283501625061	stim	1		12	AV	4.0				80.62063884735107	0.19984793663024902
34	72.97268295288086	response_window	2		26	AV	4.0				80.82048678398132	0.4355039596557617
34	73.37367701530457	response	2	V		AV	4.0	l	0.0	0.40099406242370605	81.22148084640503	
35	73.40818691253662	ITI	0		61	AV	64.0				81.25599074363708	1.0139079093933105
35	74.42209482192993	stim	1		72	AV	64.0				82.2698986530304	1.1995201110839844
35	75.62161493301392	response_window	2		18	AV	64.0				83.46941876411438	0.30107998847961426
35	75.88928580284119	response	2	A		AV	64.0	a	1.0	0.2676708698272705	83.73708963394165	
36	75.92269492149353	ITI	0		77	VA	16.0				83.770498752594	1.2814760208129883
36	77.20417094230652	stim	1		24	VA	16.0				85.05197477340698	0.3999290466308594
36	77.60409998893738	response_window	2		24	VA	16.0				85.45190382003784	0.40166687965393066
36	77.97197198867798	response	2	V		VA	16.0	l	1.0	0.3678719997406006	85.81977581977844	
37	78.00576686859131	ITI	0		66	VA	1.0				85.85357069969177	1.0979900360107422
37	79.10375690460205	stim	1		9	VA	1.0				86.95156073570251	0.14997196197509766
37	79.25372886657715	response_window	2		26	VA	1.0				87.10153269767761	0.433089017868042
37	79.65452980995178	response	2	V		VA	1.0	l	1.0	0.4008009433746338	87.50233364105225	
38	79.68681788444519	ITI	0		65	AV	4.0				87.53462171554565	1.0830950736999512
38	80.76991295814514	stim	1		12	AV	4.0				88.6177167892456	0.1999058723449707
38	80.96981883049011	response_window	2		22	AV	4.0				88.81762266159058	0.36836695671081543
38	81.30418682098389	response	2	A		AV	4.0	a	1.0	0.3343679904937744	89.15199065208435	
39	81.33818578720093	ITI	0		54	VA	64.0				89.18598961830139	0.8979442119598389
39	82.23612999916077	stim	1		72	VA	64.0				90.08393383026123	1.1996879577636719
39	83.43581795692444	response_window	2		13	VA	64.0				91.2836217880249	0.21837186813354492
39	83.62037801742554	response	2	V		VA	64.0	l	1.0	0.18456006050109863	91.468181848526	
40	83.65418982505798	ITI	0		74	VA	1.0				91.50199365615845	1.2310969829559326
40	84.88528680801392	stim	1		9	VA	1.0				92.73309063911438	0.14997315406799316
40	85.03525996208191	response_window	2		31	VA	1.0				92.88306379318237	0.518409013748169
40	85.51957392692566	response	2	V		VA	1.0	l	1.0	0.48431396484375	93.36737775802612	
41	85.55366897583008	ITI	0		54	VA	2.0				93.40147280693054	0.8976788520812988
41	86.45134782791138	stim	1		10	VA	2.0				94.29915165901184	0.16652512550354004
41	86.61787295341492	response_window	2		34	VA	2.0				94.46567678451538	0.568850040435791
41	87.15230679512024	response	2	V		VA	2.0	l	1.0	0.5344338417053223	95.0001106262207	
42	87.18672299385071	ITI	0		62	VA	8.0				95.03452682495117	1.0306048393249512
42	88.21732783317566	stim	1		16	VA	8.0				96.06513166427612	0.26678013801574707
42	88.4841079711914	response_window	2		34	VA	8.0				96.33191180229187	0.567950963973999
42	89.0183207988739	response	2	V		VA	8.0	l	1.0	0.5342128276824951	96.86612462997437	
43	89.0520589351654	ITI	0		74	AV	16.0				96.89986276626587	1.2313709259033203
43	90.28342986106873	stim	1		24	AV	16.0				98.13123369216919	0.3998250961303711
43	90.6832549571991	response_window	2		20	AV	16.0				98.53105878829956	0.33492088317871094
43	90.98449993133545	response	2	A		AV	16.0	a	1.0	0.30124497413635254	98.83230376243591	
44	91.01817584037781	ITI	0		56	VA	4.0				98.86597967147827	0.9311649799346924
44	91.9493408203125	stim	1		12	VA	4.0				99.79714465141296	0.2000432014465332
44	92.14938402175903	response_window	2		51	VA	4.0				99.9971878528595	0.8495748043060303
44	92.96684098243713	response	2	V		VA	4.0	l	1.0	0.8174569606781006	100.8146448135376	
45	92.99895882606506	ITI	0		64	AV	32.0				100.84676265716553	1.0662930011749268
45	94.06525182723999	stim	1		40	AV	32.0				101.91305565834045	0.6666929721832275
45	94.73194479942322	response_window	2		28	AV	32.0				102.57974863052368	0.46808409690856934
45	95.16622686386108	response	2	A		AV	32.0	a	1.0	0.4342820644378662	103.01403069496155	
46	95.20002889633179	ITI	0		65	AV	64.0				103.04783272743225	1.0812299251556396
46	96.28125882148743	stim	1		72	AV	64.0				104.12906265258789	1.1996212005615234
46	97.48088002204895	response_window	2		15	AV	64.0				105.32868385314941	0.2523369789123535
46	97.69876480102539	response	2	A		AV	64.0	a	1.0	0.21788477897644043	105.54656863212585	
47	97.7332170009613	ITI	0		63	VA	32.0				105.58102083206177	1.0473887920379639
47	98.78060579299927	stim	1		40	VA	32.0				106.62840962409973	0.666391134262085
47	99.44699692726135	response_window	2		16	VA	32.0				107.29480075836182	0.2680809497833252
47	99.68139791488647	response	2	V		VA	32.0	l	1.0	0.23440098762512207	107.52920174598694	
48	99.71507787704468	ITI	0		63	AV	32.0				107.56288170814514	1.0482170581817627
48	100.76329493522644	stim	1		40	AV	32.0				108.6110987663269	0.6663539409637451
48	101.42964887619019	response_window	2		16	AV	32.0				109.27745270729065	0.26845312118530273
48	101.66394591331482	response	2	A		AV	32.0	a	1.0	0.2342970371246338	109.51174974441528	
49	101.69810199737549	ITI	0		62	VA	2.0				109.54590582847595	1.0311129093170166
49	102.7292149066925	stim	1		10	VA	2.0				110.57701873779297	0.1666109561920166
49	102.89582586288452	response_window	2		48	VA	2.0				110.74362969398499	0.8014340400695801
49	103.66366195678711	response	2	A		VA	2.0	a	0.0	0.7678360939025879	111.51146578788757	
50	103.6972599029541	ITI	0		65	AV	8.0				111.54506373405457	1.0811879634857178
50	104.77844786643982	stim	1		16	AV	8.0				112.62625169754028	0.2665560245513916
50	105.04500389099121	response_window	2		29	AV	8.0				112.89280772209167	0.48719096183776855
50	105.49621486663818	response	2	A		AV	8.0	a	1.0	0.45121097564697266	113.34401869773865	
51	105.53219485282898	ITI	0		54	AV	16.0				113.37999868392944	0.8956470489501953
51	106.42784190177917	stim	1		24	AV	16.0				114.27564573287964	0.39999890327453613
51	106.82784080505371	response_window	2		18	AV	16.0				114.67564463615417	0.3017110824584961
51	107.09551787376404	response	2	A		AV	16.0	a	1.0	0.26767706871032715	114.9433217048645	
52	107.1295518875122	ITI	0		68	VA	16.0				114.97735571861267	1.1307590007781982
52	108.2603108882904	stim	1		24	VA	16.0				116.10811471939087	0.4000370502471924
52	108.6603479385376	response_window	2		23	VA	16.0				116.50815176963806	0.38556694984436035
52	109.01168298721313	response	2	V		VA	16.0	l	1.0	0.3513350486755371	116.8594868183136	
53	109.04591488838196	ITI	0		73	AV	16.0				116.89371871948242	1.214081048965454
53	110.25999593734741	stim	1		24	AV	16.0				118.10779976844788	0.39984607696533203
53	110.65984201431274	response_window	2		33	AV	16.0				118.50764584541321	0.5516228675842285
53	111.1771810054779	response	2	A		AV	16.0	a	1.0	0.5173389911651611	119.02498483657837	
54	111.21146488189697	ITI	0		65	AV	64.0				119.05926871299744	1.0809099674224854
54	112.29237484931946	stim	1		72	AV	64.0				120.14017868041992	1.1999690532684326
54	113.49234390258789	response_window	2		21	AV	64.0				121.34014773368835	0.35164308547973633
54	113.81006693840027	response	2	A		AV	64.0	a	1.0	0.31772303581237793	121.65787076950073	
55	113.84398698806763	ITI	0		67	VA	8.0				121.69179081916809	1.114522933959961
55	114.95850992202759	stim	1		16	VA	8.0				122.80631375312805	0.26660609245300293
55	115.22511601448059	response_window	2		20	VA	8.0				123.07291984558105	0.33423280715942383
55	115.52606296539307	response	2	V		VA	8.0	l	1.0	0.3009469509124756	123.37386679649353	
56	115.55934882164001	ITI	0		67	VA	64.0				123.40715265274048	1.1151440143585205
56	116.67449283599854	stim	1		72	VA	64.0				124.522296667099	1.1995840072631836
56	117.87407684326172	response_window	2		14	VA	64.0				125.72188067436218	0.23456311225891113
56	118.07535290718079	response	2	V		VA	64.0	l	1.0	0.20127606391906738	125.92315673828125	
57	118.10863995552063	ITI	0		58	AV	32.0				125.9564437866211	0.9650108814239502
57	119.07365083694458	stim	1		40	AV	32.0				126.92145466804504	0.6664490699768066
57	119.74009990692139	response_window	2		16	AV	32.0				127.58790373802185	0.26642608642578125
57	119.97461485862732	response	2	A		AV	32.0	a	1.0	0.23451495170593262	127.82241868972778	
58	120.00652599334717	ITI	0		65	VA	16.0				127.85432982444763	1.0832018852233887
58	121.08972787857056	stim	1		24	VA	16.0				128.93753170967102	0.399738073348999
58	121.48946595191956	response_window	2		26	VA	16.0				129.33726978302002	0.43283796310424805
58	121.89057493209839	response	2	V		VA	16.0	l	1.0	0.401108980178833	129.73837876319885	
59	121.9223039150238	ITI	0		64	AV	2.0				129.77010774612427	1.0666160583496094
59	122.98891997337341	stim	1		10	AV	2.0				130.83672380447388	0.1666109561920166
59	123.15553092956543	response_window	2		42	AV	2.0				131.0033347606659	0.7014899253845215
59	123.82306480407715	response	2	A		AV	2.0	a	1.0	0.6675338745117188	131.6708686351776	
60	123.85702085494995	ITI	0		57	VA	4.0				131.70482468605042	0.9480099678039551
60	124.8050308227539	stim	1		12	VA	4.0				132.65283465385437	0.20013117790222168
60	125.00516200065613	response_window	2		38	VA	4.0				132.8529658317566	0.6342658996582031
60	125.60604190826416	response	2	V		VA	4.0	l	1.0	0.6008799076080322	133.45384573936462	
61	125.63942790031433	ITI	0		65	AV	1.0				133.4872317314148	1.0816829204559326
61	126.72111082077026	stim	1		9	AV	1.0				134.56891465187073	0.14998507499694824
61	126.87109589576721	response_window	2		45	AV	1.0				134.71889972686768	0.7525279521942139
61	127.58875298500061	response	2	A		AV	1.0	a	1.0	0.7176570892333984	135.43655681610107	
62	127.62362384796143	ITI	0		59	VA	32.0				135.4714276790619	0.9802491664886475
62	128.60387301445007	stim	1		40	VA	32.0				136.45167684555054	0.6664597988128662
62	129.27033281326294	response_window	2		17	VA	32.0				137.1181366443634	0.28549814224243164
62	129.52126789093018	response	2	V		VA	32.0	l	1.0	0.25093507766723633	137.36907172203064	
63	129.55583095550537	ITI	0		58	AV	64.0				137.40363478660583	0.9639780521392822
63	130.51980900764465	stim	1		72	AV	64.0				138.36761283874512	1.199582815170288
63	131.71939182281494	response_window	2		38	AV	64.0				139.5671956539154	0.6332721710205078
63	132.320631980896	response	2	A		AV	64.0	a	1.0	0.6012401580810547	140.16843581199646	
64	132.35266399383545	ITI	0		70	VA	16.0				140.2004678249359	1.166090965270996
64	133.51875495910645	stim	1		24	VA	16.0				141.3665587902069	0.3996880054473877
64	133.91844296455383	response_window	2		25	VA	16.0				141.7662467956543	0.4188380241394043
64	134.3031928539276	response	2	V		VA	16.0	l	1.0	0.3847498893737793	142.15099668502808	
65	134.33728098869324	ITI	0		74	AV	32.0				142.1850848197937	1.2307839393615723
65	135.5680649280548	stim	1		40	AV	32.0				143.41586875915527	0.6663899421691895
65	136.234454870224	response_window	2		25	AV	32.0				144.08225870132446	0.4169189929962158
65	136.6187138557434	response	2	A		AV	32.0	a	1.0	0.3842589855194092	144.46651768684387	
66	136.65137386322021	ITI	0		69	AV	8.0				144.49917769432068	1.1494090557098389
66	137.80078291893005	stim	1		16	AV	8.0				145.64858675003052	0.26644086837768555
66	138.06722378730774	response_window	2		27	AV	8.0				145.9150276184082	0.4519162178039551
66	138.48509883880615	response	2	A		AV	8.0	a	1.0	0.4178750514984131	146.33290266990662	
67	138.5191400051117	ITI	0		66	VA	32.0				146.36694383621216	1.0975399017333984
67	139.6166799068451	stim	1		40	VA	32.0				147.46448373794556	0.6662609577178955
67	140.282940864563	response_window	2		18	VA	32.0				148.13074469566345	0.3023040294647217
67	140.55117201805115	response	2	V		VA	32.0	l	1.0	0.2682311534881592	148.3989758491516	
68	140.5852448940277	ITI	0		71	AV	32.0				148.43304872512817	1.1807019710540771
68	141.7659468650818	stim	1		40	AV	32.0				149.61375069618225	0.666579008102417
68	142.4325258731842	response_window	2		15	AV	32.0				150.28032970428467	0.2519490718841553
68	142.65047001838684	response	2	A		AV	32.0	a	1.0	0.21794414520263672	150.4982738494873	
69	142.68447494506836	ITI	0		55	AV	2.0				150.53227877616882	0.9143369197845459
69	143.5988118648529	stim	1		10	AV	2.0				151.44661569595337	0.16628098487854004
69	143.76509284973145	response_window	2		64	AV	2.0				151.6128966808319	1.0692601203918457
69	144.79953289031982	response	2	V		AV	2.0	l	0.0	1.034440040588379	152.6473367214203	
70	144.8343529701233	ITI	0		65	VA	16.0				152.68215680122375	1.0803229808807373
70	145.91467595100403	stim	1		24	VA	16.0				153.7624797821045	0.39975905418395996
70	146.314435005188	response_window	2		28	VA	16.0				154.16223883628845	0.469113826751709
70	146.74887585639954	response	2	V		VA	16.0	l	1.0	0.43444085121154785	154.5966796875	
71	146.7835488319397	ITI	0		73	VA	8.0				154.63135266304016	1.2138800621032715
71	147.99742889404297	stim	1		16	VA	8.0				155.84523272514343	0.2665140628814697
71	148.26394295692444	response_window	2		28	VA	8.0				156.1117467880249	0.46875500679016113
71	148.69837379455566	response	2	V		VA	8.0	l	1.0	0.4344308376312256	156.54617762565613	
72	148.7326979637146	ITI	0		72	AV	2.0				156.58050179481506	1.1972339153289795
72	149.92993187904358	stim	1		10	AV	2.0				157.77773571014404	0.16646194458007812
72	150.09639382362366	response_window	2		41	AV	2.0				157.94419765472412	0.6854720115661621
72	150.7473759651184	response	2	A		AV	2.0	a	1.0	0.650982141494751	158.59517979621887	
73	150.78186583518982	ITI	0		62	VA	2.0				158.62966966629028	1.0306880474090576
73	151.81255388259888	stim	1		10	VA	2.0				159.66035771369934	0.16664600372314453
73	151.97919988632202	response_window	2		27	VA	2.0				159.82700371742249	0.45211291313171387
73	152.39685201644897	response	2	A		VA	2.0	a	0.0	0.4176521301269531	160.24465584754944	
74	152.43131279945374	ITI	0		75	AV	32.0				160.2791166305542	1.2472481727600098
74	153.67856097221375	stim	1		40	AV	32.0				161.5263648033142	0.6663289070129395
74	154.34488987922668	response_window	2		36	AV	32.0				162.19269371032715	0.6020970344543457
74	154.91278982162476	response	2	A		AV	32.0	a	1.0	0.5678999423980713	162.76059365272522	
75	154.94698691368103	ITI	0		54	AV	8.0				162.7947907447815	0.8977189064025879
75	155.84470582008362	stim	1		16	AV	8.0				163.69250965118408	0.2664830684661865
75	156.1111888885498	response_window	2		47	AV	8.0				163.95899271965027	0.7843430042266846
75	156.86232686042786	response	2	A		AV	8.0	a	1.0	0.7511379718780518	164.71013069152832	
76	156.8955318927765	ITI	0		70	AV	4.0				164.74333572387695	1.1651160717010498
76	158.06064796447754	stim	1		12	AV	4.0				165.908451795578	0.19983792304992676
76	158.26048588752747	response_window	2		32	AV	4.0				166.10828971862793	0.535991907119751
76	158.76162695884705	response	2	V		AV	4.0	l	0.0	0.5011410713195801	166.6094307899475	
77	158.79647779464722	ITI	0		61	AV	1.0				166.64428162574768	1.0134332180023193
77	159.80991101264954	stim	1		9	AV	1.0				167.65771484375	0.14998292922973633
77	159.95989394187927	response_window	2		38	AV	1.0				167.80769777297974	0.6352260112762451
77	160.56085085868835	response	2	V		AV	1.0	l	0.0	0.600956916809082	168.40865468978882	
78	160.59511995315552	ITI	0		67	AV	1.0				168.44292378425598	1.1140739917755127
78	161.70919394493103	stim	1		9	AV	1.0				169.5569977760315	0.1499500274658203
78	161.85914397239685	response_window	2		39	AV	1.0				169.70694780349731	0.6521768569946289
78	162.47685885429382	response	2	V		AV	1.0	l	0.0	0.6177148818969727	170.3246626853943	
79	162.51132082939148	ITI	0		60	AV	4.0				170.35912466049194	0.997413158416748
79	163.50873398780823	stim	1		12	AV	4.0				171.3565378189087	0.19994401931762695
79	163.70867800712585	response_window	2		31	AV	4.0				171.55648183822632	0.518286943435669
79	164.19262599945068	response	2	V		AV	4.0	l	0.0	0.4839479923248291	172.04042983055115	
80	164.22696495056152	ITI	0		74	VA	16.0				172.074768781662	1.2310268878936768
80	165.4579918384552	stim	1		24	VA	16.0				173.30579566955566	0.3999199867248535
80	165.85791182518005	response_window	2		26	VA	16.0				173.70571565628052	0.43446898460388184
80	166.25914692878723	response	2	V		VA	16.0	l	1.0	0.40123510360717773	174.1069507598877	
81	166.29238080978394	ITI	0		56	AV	2.0				174.1401846408844	0.9318370819091797
81	167.22421789169312	stim	1		10	AV	2.0				175.07202172279358	0.1665511131286621
81	167.39076900482178	response_window	2		34	AV	2.0				175.23857283592224	0.5659317970275879
81	167.92501401901245	response	2	V		AV	2.0	l	0.0	0.5342450141906738	175.77281785011292	
82	167.95670080184937	ITI	0		64	VA	4.0				175.80450463294983	1.0668330192565918
82	169.02353382110596	stim	1		12	VA	4.0				176.87133765220642	0.19985413551330566
82	169.22338795661926	response_window	2		33	VA	4.0				177.07119178771973	0.5519289970397949
82	169.7410409450531	response	2	A		VA	4.0	a	0.0	0.5176529884338379	177.58884477615356	
83	169.77531695365906	ITI	0		67	AV	16.0				177.62312078475952	1.1142358779907227
83	170.88955283164978	stim	1		24	AV	16.0				178.73735666275024	0.3997340202331543
83	171.28928685188293	response_window	2		40	AV	16.0				179.1370906829834	0.6682701110839844
83	171.92372584342957	response	2	A		AV	16.0	a	1.0	0.6344389915466309	179.77152967453003	
84	171.95755696296692	ITI	0		74	AV	4.0				179.80536079406738	1.231220006942749
84	173.18877696990967	stim	1		12	AV	4.0				181.03658080101013	0.19995784759521484
84	173.38873481750488	response_window	2		30	AV	4.0				181.23653864860535	0.5020580291748047
84	173.85666680335999	response	2	A		AV	4.0	a	1.0	0.46793198585510254	181.70447063446045	
85	173.8907928466797	ITI	0		69	AV	2.0				181.73859667778015	1.1471309661865234
85	175.0379238128662	stim	1		10	AV	2.0				182.88572764396667	0.16668200492858887
85	175.2046058177948	response_window	2		22	AV	2.0				183.05240964889526	0.36927199363708496
85	175.53917598724365	response	2	A		AV	2.0	a	1.0	0.33457016944885254	183.38697981834412	
86	175.57387781143188	ITI	0		62	VA	64.0				183.42168164253235	1.0302870273590088
86	176.6041648387909	stim	1		72	VA	64.0				184.45196866989136	1.1996171474456787
86	177.80378198623657	response_window	2		12	VA	64.0				185.65158581733704	0.20167994499206543
86	177.97139382362366	response	2	V		VA	64.0	l	1.0	0.16761183738708496	185.81919765472412	
87	178.00546193122864	ITI	0		54	AV	8.0				185.8532657623291	0.8979530334472656
87	178.9034149646759	stim	1		16	AV	8.0				186.75121879577637	0.2665388584136963
87	179.1699538230896	response_window	2		70	AV	8.0				187.01775765419006	1.167903184890747
87	180.30372786521912	response	2	V		AV	8.0	l	0.0	1.1337740421295166	188.15153169631958	
88	180.33785700798035	ITI	0		76	VA	4.0				188.1856608390808	1.264657974243164
88	181.6025149822235	stim	1		12	VA	4.0				189.45031881332397	0.19971585273742676
88	181.80223083496094	response_window	2		24	VA	4.0				189.6500346660614	0.4015681743621826
88	182.17019200325012	response	2	V		VA	4.0	l	1.0	0.36796116828918457	190.0179958343506	
89	182.20379900932312	ITI	0		61	VA	32.0				190.05160284042358	1.0147957801818848
89	183.218594789505	stim	1		40	VA	32.0				191.06639862060547	0.6665070056915283
89	183.88510179519653	response_window	2		18	VA	32.0				191.732905626297	0.30202221870422363
89	184.15293884277344	response	2	V		VA	32.0	l	1.0	0.2678370475769043	192.0007426738739	
90	184.18712401390076	ITI	0		63	AV	8.0				192.03492784500122	1.0473778247833252
90	185.23450183868408	stim	1		16	AV	8.0				193.08230566978455	0.26650094985961914
90	185.5010027885437	response_window	2		23	AV	8.0				193.34880661964417	0.38309216499328613
90	185.85228085517883	response	2	A		AV	8.0	a	1.0	0.35127806663513184	193.7000846862793	
91	185.884094953537	ITI	0		64	VA	32.0				193.73189878463745	1.0666658878326416
91	186.95076084136963	stim	1		40	VA	32.0				194.7985646724701	0.6664760112762451
91	187.61723685264587	response_window	2		49	VA	32.0				195.46504068374634	0.8167071342468262
91	188.40175199508667	response	2	A		VA	32.0	a	0.0	0.7845151424407959	196.24955582618713	
92	188.4339439868927	ITI	0		77	AV	64.0				196.28174781799316	1.28267502784729
92	189.71661901474	stim	1		72	AV	64.0				197.56442284584045	1.1995849609375
92	190.9162039756775	response_window	2		17	AV	64.0				198.76400780677795	0.2859029769897461
92	191.16735696792603	response	2	A		AV	64.0	a	1.0	0.25115299224853516	199.0151607990265	
93	191.20210695266724	ITI	0		77	AV	16.0				199.0499107837677	1.2799670696258545
93	192.4820740222931	stim	1		24	AV	16.0				200.32987785339355	0.4000418186187744
93	192.88211584091187	response_window	2		43	AV	16.0				200.72991967201233	0.7176220417022705
93	193.56647491455078	response	2	A		AV	16.0	a	1.0	0.684359073638916	201.41427874565125	
94	193.59973788261414	ITI	0		78	AV	8.0				201.4475417137146	1.2983291149139404
94	194.89806699752808	stim	1		16	AV	8.0				202.74587082862854	0.26650190353393555
94	195.164568901062	response_window	2		34	AV	8.0				203.01237273216248	0.5686430931091309
94	195.69880390167236	response	2	V		AV	8.0	l	0.0	0.5342350006103516	203.54660773277283	
95	195.73321199417114	ITI	0		62	AV	64.0				203.5810158252716	1.0309209823608398
95	196.76413297653198	stim	1		72	AV	64.0				204.61193680763245	1.1994869709014893
95	197.96361994743347	response_window	2		17	AV	64.0				205.81142377853394	0.2846639156341553
95	198.21534299850464	response	2	A		AV	64.0	a	1.0	0.251723051071167	206.0631468296051	
96	198.24828386306763	ITI	0		76	VA	32.0				206.0960876941681	1.2646639347076416
96	199.51294779777527	stim	1		40	VA	32.0				207.36075162887573	0.6666150093078613
96	200.17956280708313	response_window	2		18	VA	32.0				208.0273666381836	0.30215001106262207
96	200.44744396209717	response	2	V		VA	32.0	l	1.0	0.2678811550140381	208.29524779319763	
97	200.48171281814575	ITI	0		63	VA	1.0				208.32951664924622	1.0473101139068604
97	201.5290229320526	stim	1		9	VA	1.0				209.37682676315308	0.14992904663085938
97	201.67895197868347	response_window	2		51	VA	1.0				209.52675580978394	0.8523778915405273
97	202.49669289588928	response	2	A		VA	1.0	a	0.0	0.8177409172058105	210.34449672698975	
98	202.531329870224	ITI	0		67	VA	32.0				210.37913370132446	1.1138310432434082
98	203.6451609134674	stim	1		40	VA	32.0				211.49296474456787	0.6664009094238281
98	204.31156182289124	response_window	2		24	VA	32.0				212.1593656539917	0.40170717239379883
98	204.679340839386	response	2	V		VA	32.0	l	1.0	0.367779016494751	212.52714467048645	
99	204.71326899528503	ITI	0		54	VA	32.0				212.5610728263855	0.8978519439697266
99	205.61112093925476	stim	1		40	VA	32.0				213.45892477035522	0.6663839817047119
99	206.27750492095947	response_window	2		31	VA	32.0				214.12530875205994	0.5187630653381348
99	206.7620198726654	response	2	V		VA	32.0	l	1.0	0.4845149517059326	214.60982370376587	
100	206.7962679862976	ITI	0		59	VA	32.0				214.64407181739807	0.9808499813079834
100	207.7771179676056	stim	1		40	VA	32.0				215.62492179870605	0.6661298274993896
100	208.44324779510498	response_window	2		27	VA	32.0				216.29105162620544	0.45250701904296875
100	208.86134696006775	response	2	V		VA	32.0	l	1.0	0.41809916496276855	216.7091507911682	
101	208.89575481414795	ITI	0		68	AV	1.0				216.7435586452484	1.1305561065673828
101	210.02631092071533	stim	1		9	AV	1.0				217.8741147518158	0.1500239372253418
101	210.17633485794067	response_window	2		39	AV	1.0				218.02413868904114	0.6518270969390869
101	210.79406690597534	response	2	A		AV	1.0	a	1.0	0.617732048034668	218.6418707370758	
102	210.82816195487976	ITI	0		69	VA	8.0				218.67596578598022	1.1473488807678223
102	211.97551083564758	stim	1		16	VA	8.0				219.82331466674805	0.26674509048461914
102	212.2422559261322	response_window	2		109	VA	8.0				220.09005975723267	1.81768798828125
102	214.02609300613403	response	2	V		VA	8.0	l	1.0	1.783837080001831	221.8738968372345	
103	214.05994391441345	ITI	0		78	AV	1.0				221.90774774551392	1.2978999614715576
103	215.357843875885	stim	1		9	AV	1.0				223.20564770698547	0.14979195594787598
103	215.50763583183289	response_window	2		49	AV	1.0				223.35543966293335	0.8189971446990967
103	216.29176688194275	response	2	A		AV	1.0	a	1.0	0.7841310501098633	224.1395707130432	
104	216.32663297653198	ITI	0		60	AV	1.0				224.17443680763245	0.9971280097961426
104	217.32376098632812	stim	1		9	AV	1.0				225.1715648174286	0.14987683296203613
104	217.47363781929016	response_window	2		46	AV	1.0				225.32144165039062	0.768679141998291
104	218.20822191238403	response	2	A		AV	1.0	a	1.0	0.7345840930938721	226.0560257434845	
105	218.24231696128845	ITI	0		62	VA	32.0				226.09012079238892	1.0307190418243408
105	219.2730360031128	stim	1		40	VA	32.0				227.12083983421326	0.6666369438171387
105	219.93967294692993	response_window	2		13	VA	32.0				227.7874767780304	0.21880388259887695
105	220.12382578849792	response	2	V		VA	32.0	l	1.0	0.18415284156799316	227.9716296195984	
106	220.1584768295288	ITI	0		56	AV	32.0				228.00628066062927	0.9307739734649658
106	221.08925080299377	stim	1		40	AV	32.0				228.93705463409424	0.6663970947265625
106	221.75564789772034	response_window	2		17	AV	32.0				229.6034517288208	0.28433799743652344
106	222.0066659450531	response	2	A		AV	32.0	a	1.0	0.25101804733276367	229.85446977615356	
107	222.03998589515686	ITI	0		72	VA	2.0				229.88778972625732	1.1985929012298584
107	223.23857879638672	stim	1		10	VA	2.0				231.08638262748718	0.16663813591003418
107	223.40521693229675	response_window	2		46	VA	2.0				231.25302076339722	0.768204927444458
107	224.13929986953735	response	2	V		VA	2.0	l	1.0	0.7340829372406006	231.98710370063782	
108	224.1734218597412	ITI	0		67	AV	8.0				232.02122569084167	1.1144349575042725
108	225.28785681724548	stim	1		16	AV	8.0				233.13566064834595	0.26661014556884766
108	225.55446696281433	response_window	2		31	AV	8.0				233.4022707939148	0.5175378322601318
108	226.03858494758606	response	2	A		AV	8.0	a	1.0	0.4841179847717285	233.88638877868652	
109	226.07200479507446	ITI	0		76	AV	64.0				233.91980862617493	1.2651090621948242
109	227.3371138572693	stim	1		72	AV	64.0				235.18491768836975	1.199470043182373
109	228.53658390045166	response_window	2		26	AV	64.0				236.38438773155212	0.4338529109954834
109	228.93789291381836	response	2	A		AV	64.0	a	1.0	0.4013090133666992	236.78569674491882	
110	228.97043681144714	ITI	0		55	AV	8.0				236.8182406425476	0.9157211780548096
110	229.88615798950195	stim	1		16	AV	8.0				237.73396182060242	0.2665538787841797
110	230.15271186828613	response_window	2		25	AV	8.0				238.0005156993866	0.4188101291656494
110	230.53730082511902	response	2	A		AV	8.0	a	1.0	0.38458895683288574	238.38510465621948	
111	230.57152199745178	ITI	0		54	AV	64.0				238.41932582855225	0.8974368572235107
111	231.4689588546753	stim	1		72	AV	64.0				239.31676268577576	1.1997151374816895
111	232.66867399215698	response_window	2		17	AV	64.0				240.51647782325745	0.28473687171936035
111	232.91972088813782	response	2	A		AV	64.0	a	1.0	0.25104689598083496	240.76752471923828	
112	232.95341086387634	ITI	0		60	AV	8.0				240.8012146949768	0.99800705909729
112	233.95141792297363	stim	1		16	AV	8.0				241.7992217540741	0.266542911529541
112	234.21796083450317	response_window	2		17	AV	8.0				242.06576466560364	0.2856881618499756
112	234.4693489074707	response	2	A		AV	8.0	a	1.0	0.2513880729675293	242.31715273857117	
113	234.50364899635315	ITI	0		55	VA	8.0				242.3514528274536	0.9140098094940186
113	235.41765880584717	stim	1		16	VA	8.0				243.26546263694763	0.2665281295776367
113	235.6841869354248	response_window	2		26	VA	8.0				243.53199076652527	0.43538689613342285
113	236.0854148864746	response	2	V		VA	8.0	l	1.0	0.4012279510498047	243.93321871757507	
114	236.11957383155823	ITI	0		64	VA	32.0				243.9673776626587	1.064316987991333
114	237.18389081954956	stim	1		40	VA	32.0				245.03169465065002	0.6664490699768066
114	237.85033988952637	response_window	2		51	VA	32.0				245.69814372062683	0.8523890972137451
114	238.66800689697266	response	2	V		VA	32.0	l	1.0	0.8176670074462891	246.51581072807312	
115	238.7027289867401	ITI	0		61	AV	32.0				246.55053281784058	1.0134968757629395
115	239.71622586250305	stim	1		40	AV	32.0				247.56402969360352	0.666456937789917
115	240.38268280029297	response_window	2		14	AV	32.0				248.23048663139343	0.23603606224060059
115	240.5839159488678	response	2	A		AV	32.0	a	1.0	0.2012331485748291	248.43171977996826	
116	240.61871886253357	ITI	0		67	VA	1.0				248.46652269363403	1.1135101318359375
116	241.7322289943695	stim	1		9	VA	1.0				249.58003282546997	0.14988183975219727
116	241.8821108341217	response_window	2		21	VA	1.0				249.72991466522217	0.3522319793701172
116	242.19989895820618	response	2	V		VA	1.0	l	1.0	0.31778812408447266	250.04770278930664	
117	242.23434281349182	ITI	0		71	AV	1.0				250.08214664459229	1.1806449890136719
117	243.4149878025055	stim	1		9	AV	1.0				251.26279163360596	0.1499471664428711
117	243.56493496894836	response_window	2		28	AV	1.0				251.41273880004883	0.4688448905944824
117	243.99946999549866	response	2	V		AV	1.0	l	0.0	0.43453502655029297	251.84727382659912	
118	244.03377985954285	ITI	0		60	VA	32.0				251.8815836906433	0.9973061084747314
118	245.03108596801758	stim	1		40	VA	32.0				252.87888979911804	0.6663868427276611
118	245.69747281074524	response_window	2		15	VA	32.0				253.5452766418457	0.24967002868652344
118	245.91510581970215	response	2	V		VA	32.0	l	1.0	0.21763300895690918	253.7629096508026	
119	245.94714283943176	ITI	0		64	AV	16.0				253.79494667053223	1.0664889812469482
119	247.0136318206787	stim	1		24	AV	16.0				254.86143565177917	0.3998069763183594
119	247.41343879699707	response_window	2		21	AV	16.0				255.26124262809753	0.3508729934692383
119	247.73014998435974	response	2	A		AV	16.0	a	1.0	0.3167111873626709	255.5779538154602	
120	247.7643117904663	ITI	0		61	AV	16.0				255.61211562156677	1.015580177307129
120	248.77989196777344	stim	1		24	AV	16.0				256.6276957988739	0.3998229503631592
120	249.1797149181366	response_window	2		43	AV	16.0				257.02751874923706	0.7191629409790039
120	249.86419582366943	response	2	A		AV	16.0	a	1.0	0.6844809055328369	257.7119996547699	
121	249.8988778591156	ITI	0		58	AV	1.0				257.74668169021606	0.9636149406433105
121	250.8624927997589	stim	1		9	AV	1.0				258.7102966308594	0.15035414695739746
121	251.0128469467163	response_window	2		33	AV	1.0				258.8606507778168	0.5517950057983398
121	251.53027486801147	response	2	A		AV	1.0	a	1.0	0.517427921295166	259.37807869911194	
122	251.56464195251465	ITI	0		61	AV	2.0				259.4124457836151	1.013843059539795
122	252.57848501205444	stim	1		10	AV	2.0				260.4262888431549	0.16654682159423828
122	252.74503183364868	response_window	2		23	AV	2.0				260.59283566474915	0.38601016998291016
122	253.0964879989624	response	2	A		AV	2.0	a	1.0	0.3514561653137207	260.94429183006287	
123	253.1310420036316	ITI	0		69	VA	32.0				260.97884583473206	1.1469519138336182
123	254.2779939174652	stim	1		40	VA	32.0				262.1257977485657	0.6664659976959229
123	254.94445991516113	response_window	2		16	VA	32.0				262.7922637462616	0.2677779197692871
123	255.17908191680908	response	2	V		VA	32.0	l	1.0	0.23462200164794922	263.02688574790955	
124	255.21223783493042	ITI	0		57	AV	8.0				263.0600416660309	0.9484610557556152
124	256.16069889068604	stim	1		16	AV	8.0				264.0085027217865	0.26652002334594727
124	256.427218914032	response_window	2		29	AV	8.0				264.27502274513245	0.4828500747680664
124	256.8781089782715	response	2	V		AV	8.0	l	0.0	0.45089006423950195	264.72591280937195	
125	256.91006898880005	ITI	0		72	AV	1.0				264.7578728199005	1.1999008655548096
125	258.10996985435486	stim	1		9	AV	1.0				265.9577736854553	0.15005898475646973
125	258.2600288391113	response_window	2		34	AV	1.0				266.1078326702118	0.568554162979126
125	258.7943739891052	response	2	V		AV	1.0	l	0.0	0.5343451499938965	266.6421778202057	
126	258.82858300209045	ITI	0		59	AV	32.0				266.6763868331909	0.9804389476776123
126	259.80902194976807	stim	1		40	AV	32.0				267.65682578086853	0.6668360233306885
126	260.47585797309875	response_window	2		24	AV	32.0				268.3236618041992	0.4014298915863037
126	260.84364581108093	response	2	A		AV	32.0	a	1.0	0.36778783798217773	268.6914496421814	
127	260.87728786468506	ITI	0		70	AV	16.0				268.7250916957855	1.1642820835113525
127	262.0415699481964	stim	1		24	AV	16.0				269.8893737792969	0.4003758430480957
127	262.4419457912445	response_window	2		31	AV	16.0				270.28974962234497	0.5184922218322754
127	262.926157951355	response	2	A		AV	16.0	a	1.0	0.48421216011047363	270.77396178245544	
128	262.9604380130768	ITI	0		56	VA	4.0				270.80824184417725	0.9310088157653809
128	263.89144682884216	stim	1		12	VA	4.0				271.7392506599426	0.19971513748168945
128	264.09116196632385	response_window	2		65	VA	4.0				271.9389657974243	1.0853729248046875
128	265.1418459415436	response	2	V		VA	4.0	l	1.0	1.0506839752197266	272.98964977264404	
129	265.17653489112854	ITI	0		59	VA	4.0				273.024338722229	0.9806039333343506
129	266.1571388244629	stim	1		12	VA	4.0				274.00494265556335	0.2000741958618164
129	266.3572130203247	response_window	2		19	VA	4.0				274.20501685142517	0.3162679672241211
129	266.6415708065033	response	2	V		VA	4.0	l	1.0	0.28435778617858887	274.48937463760376	
130	266.6734809875488	ITI	0		64	VA	64.0				274.5212848186493	1.0667338371276855
130	267.7402148246765	stim	1		72	VA	64.0				275.588018655777	1.1995961666107178
130	268.93981099128723	response_window	2		20	VA	64.0				276.7876148223877	0.33609795570373535
130	269.2410418987274	response	2	V		VA	64.0	l	1.0	0.30123090744018555	277.0888457298279	
131	269.27590894699097	ITI	0		60	VA	8.0				277.12371277809143	0.9966959953308105
131	270.2726049423218	stim	1		16	VA	8.0				278.12040877342224	0.26668500900268555
131	270.53928995132446	response_window	2		24	VA	8.0				278.3870937824249	0.3995840549468994
131	270.9067180156708	response	2	V		VA	8.0	l	1.0	0.3674280643463135	278.75452184677124	
132	270.93887400627136	ITI	0		73	AV	32.0				278.7866778373718	1.2165207862854004
132	272.15539479255676	stim	1		40	AV	32.0				280.0031986236572	0.6661062240600586
132	272.8215010166168	response_window	2		13	AV	32.0				280.6693048477173	0.21869897842407227
132	273.006178855896	response	2	A		AV	32.0	a	1.0	0.1846778392791748	280.85398268699646	
133	273.0401999950409	ITI	0		66	VA	64.0				280.88800382614136	1.0977089405059814
133	274.1379089355469	stim	1		72	VA	64.0				281.98571276664734	1.1994869709014893
133	275.33739590644836	response_window	2		30	VA	64.0				283.1851997375488	0.5023210048675537
133	275.80547189712524	response	2	V		VA	64.0	l	1.0	0.4680759906768799	283.6532757282257	
134	275.8397169113159	ITI	0		78	VA	2.0				283.6875207424164	1.29709792137146
134	277.1368148326874	stim	1		10	VA	2.0				284.98461866378784	0.16680002212524414
134	277.3036148548126	response_window	2		39	VA	2.0				285.1514186859131	0.6516411304473877
134	277.92121601104736	response	2	V		VA	2.0	l	1.0	0.6176011562347412	285.7690198421478	
135	277.95525598526	ITI	0		60	VA	32.0				285.8030598163605	0.9975550174713135
135	278.9528110027313	stim	1		40	VA	32.0				286.8006148338318	0.6664869785308838
135	279.6192979812622	response_window	2		18	VA	32.0				287.46710181236267	0.29975295066833496
135	279.8872878551483	response	2	V		VA	32.0	l	1.0	0.2679898738861084	287.7350916862488	
136	279.91905093193054	ITI	0		72	VA	4.0				287.766854763031	1.199876070022583
136	281.1189270019531	stim	1		12	VA	4.0				288.9667308330536	0.2000257968902588
136	281.3189527988434	response_window	2		22	VA	4.0				289.16675662994385	0.3687710762023926
136	281.65354800224304	response	2	A		VA	4.0	a	0.0	0.3345952033996582	289.5013518333435	
137	281.6877238750458	ITI	0		72	AV	4.0				289.53552770614624	1.1972451210021973
137	282.884968996048	stim	1		12	AV	4.0				290.73277282714844	0.19996190071105957
137	283.08493089675903	response_window	2		29	AV	4.0				290.9327347278595	0.48483705520629883
137	283.536062002182	response	2	A		AV	4.0	a	1.0	0.45113110542297363	291.38386583328247	
138	283.56976795196533	ITI	0		62	AV	2.0				291.4175717830658	1.0313549041748047
138	284.60112285614014	stim	1		10	AV	2.0				292.4489266872406	0.1664750576019287
138	284.76759791374207	response_window	2		25	AV	2.0				292.61540174484253	0.4191009998321533
138	285.15251779556274	response	2	A		AV	2.0	a	1.0	0.3849198818206787	293.0003216266632	
139	285.1866989135742	ITI	0		75	VA	4.0				293.0345027446747	1.246978998184204
139	286.4336779117584	stim	1		12	VA	4.0				294.2814817428589	0.19993805885314941
139	286.6336159706116	response_window	2		30	VA	4.0				294.48141980171204	0.5017788410186768
139	287.10157895088196	response	2	V		VA	4.0	l	1.0	0.46796298027038574	294.9493827819824	
140	287.13539481163025	ITI	0		58	AV	1.0				294.9831986427307	0.9644432067871094
140	288.09983801841736	stim	1		9	AV	1.0				295.9476418495178	0.14997196197509766
140	288.24980998039246	response_window	2		16	AV	1.0				296.0976138114929	0.26626086235046387
140	288.4841618537903	response	2	A		AV	1.0	a	1.0	0.23435187339782715	296.33196568489075	
141	288.5160708427429	ITI	0		72	AV	1.0				296.3638746738434	1.1999659538269043
141	289.7160367965698	stim	1		9	AV	1.0				297.5638406276703	0.14995312690734863
141	289.8659899234772	response_window	2		21	AV	1.0				297.71379375457764	0.3518049716949463
141	290.183974981308	response	2	A		AV	1.0	a	1.0	0.31798505783081055	298.03177881240845	
142	290.2177948951721	ITI	0		75	VA	32.0				298.0655987262726	1.2475059032440186
142	291.46530079841614	stim	1		40	VA	32.0				299.3131046295166	0.6665670871734619
142	292.1318678855896	response_window	2		13	VA	32.0				299.97967171669006	0.2173149585723877
142	292.31704092025757	response	2	V		VA	32.0	l	1.0	0.18517303466796875	300.16484475135803	
143	292.349182844162	ITI	0		62	AV	8.0				300.19698667526245	1.0321600437164307
143	293.3813428878784	stim	1		16	AV	8.0				301.2291467189789	0.2665860652923584
143	293.6479289531708	response_window	2		15	AV	8.0				301.49573278427124	0.24971985816955566
143	293.8657147884369	response	2	A		AV	8.0	a	1.0	0.21778583526611328	301.71351861953735	
144	293.89764881134033	ITI	0		73	AV	2.0				301.7454526424408	1.2164599895477295
144	295.11410880088806	stim	1		10	AV	2.0				302.9619126319885	0.1664412021636963
144	295.28055000305176	response_window	2		33	AV	2.0				303.1283538341522	0.5524189472198486
144	295.79857087135315	response	2	A		AV	2.0	a	1.0	0.5180208683013916	303.6463747024536	
145	295.8329689502716	ITI	0		68	VA	1.0				303.68077278137207	1.1307308673858643
145	296.96369981765747	stim	1		9	VA	1.0				304.81150364875793	0.14982914924621582
145	297.1135289669037	response_window	2		24	VA	1.0				304.96133279800415	0.4020960330963135
145	297.4812488555908	response	2	V		VA	1.0	l	1.0	0.3677198886871338	305.3290526866913	
146	297.515625	ITI	0		74	AV	32.0				305.36342883110046	1.2307498455047607
146	298.74637484550476	stim	1		40	AV	32.0				306.5941786766052	0.6665041446685791
146	299.41287899017334	response_window	2		11	AV	32.0				307.2606828212738	0.18564486503601074
146	299.5637528896332	response	2	A		AV	32.0	a	1.0	0.15087389945983887	307.41155672073364	
147	299.59852385520935	ITI	0		66	VA	64.0				307.4463276863098	1.0971360206604004
147	300.69565987586975	stim	1		72	VA	64.0				308.5434637069702	1.1994340419769287
147	301.8950939178467	response_window	2		11	VA	64.0				309.74289774894714	0.18510890007019043
147	302.0463709831238	response	2	V		VA	64.0	l	1.0	0.1512770652770996	309.89417481422424	
148	302.08020281791687	ITI	0		59	AV	32.0				309.92800664901733	0.9813060760498047
148	303.0615088939667	stim	1		40	AV	32.0				310.90931272506714	0.6663849353790283
148	303.7278938293457	response_window	2		13	AV	32.0				311.57569766044617	0.21628999710083008
148	303.91249990463257	response	2	A		AV	32.0	a	1.0	0.18460607528686523	311.76030373573303	
149	303.94418382644653	ITI	0		63	AV	2.0				311.791987657547	1.0501329898834229
149	304.99431681632996	stim	1		10	AV	2.0				312.8421206474304	0.1664891242980957
149	305.16080594062805	response_window	2		121	AV	2.0				313.0086097717285	2.0183498859405518
149	307.14470386505127	response	2	A		AV	2.0	a	1.0	1.9838979244232178	314.99250769615173	
150	307.1791558265686	ITI	0		63	AV	16.0				315.02695965766907	1.0472080707550049
150	308.2263638973236	stim	1		24	AV	16.0				316.0741677284241	0.39981508255004883
150	308.62617897987366	response_window	2		28	AV	16.0				316.4739828109741	0.4690368175506592
150	309.06049394607544	response	2	A		AV	16.0	a	1.0	0.4343149662017822	316.9082977771759	
151	309.0952157974243	ITI	0		76	VA	16.0				316.9430196285248	1.2639381885528564
151	310.3591539859772	stim	1		24	VA	16.0				318.20695781707764	0.3997499942779541
151	310.7589039802551	response_window	2		20	VA	16.0				318.6067078113556	0.33470797538757324
151	311.06002283096313	response	2	V		VA	16.0	l	1.0	0.3011188507080078	318.9078266620636	
152	311.0936119556427	ITI	0		70	VA	64.0				318.94141578674316	1.1648268699645996
152	312.2584388256073	stim	1		72	VA	64.0				320.10624265670776	1.1996040344238281
152	313.4580428600311	response_window	2		22	VA	64.0				321.3058466911316	0.3690791130065918
152	313.79230880737305	response	2	V		VA	64.0	l	1.0	0.33426594734191895	321.6401126384735	
153	313.8271219730377	ITI	0		75	AV	64.0				321.6749258041382	1.246863842010498
153	315.0739858150482	stim	1		72	AV	64.0				322.9217896461487	1.1996970176696777
153	316.2736828327179	response_window	2		17	AV	64.0				324.12148666381836	0.28507304191589355
153	316.5245769023895	response	2	A		AV	64.0	a	1.0	0.25089406967163086	324.37238073349	
154	316.5587558746338	ITI	0		56	VA	2.0				324.40655970573425	0.9311420917510986
154	317.4898979663849	stim	1		10	VA	2.0				325.33770179748535	0.16665983200073242
154	317.6565577983856	response_window	2		31	VA	2.0				325.5043616294861	0.5191371440887451
154	318.14101099967957	response	2	A		VA	2.0	a	0.0	0.4844532012939453	325.98881483078003	
155	318.17569494247437	ITI	0		69	VA	16.0				326.02349877357483	1.1471118927001953
155	319.32280683517456	stim	1		24	VA	16.0				327.170610666275	0.3998720645904541
155	319.722678899765	response_window	2		43	VA	16.0				327.5704827308655	0.717628002166748
155	320.40700578689575	response	2	V		VA	16.0	l	1.0	0.6843268871307373	328.2548096179962	
156	320.44030690193176	ITI	0		60	VA	2.0				328.2881107330322	0.9983320236206055
156	321.43863892555237	stim	1		10	VA	2.0				329.28644275665283	0.16654300689697266
156	321.60518193244934	response_window	2		25	VA	2.0				329.4529857635498	0.4187428951263428
156	321.98965287208557	response	2	V		VA	2.0	l	1.0	0.38447093963623047	329.83745670318604	
157	322.0239248275757	ITI	0		69	AV	1.0				329.87172865867615	1.1475880146026611
157	323.17151284217834	stim	1		9	AV	1.0				331.0193166732788	0.14981412887573242
157	323.3213269710541	response_window	2		38	AV	1.0				331.16913080215454	0.6329388618469238
157	323.9224510192871	response	2	V		AV	1.0	l	0.0	0.6011240482330322	331.7702548503876	
158	323.954265832901	ITI	0		57	AV	16.0				331.80206966400146	0.9496850967407227
158	324.9039509296417	stim	1		24	AV	16.0				332.7517547607422	0.39987802505493164
158	325.30382895469666	response_window	2		27	AV	16.0				333.1516327857971	0.45235395431518555
158	325.7216548919678	response	2	V		AV	16.0	l	0.0	0.41782593727111816	333.56945872306824	
159	325.75618290901184	ITI	0		71	AV	8.0				333.6039867401123	1.180527925491333
159	326.9367108345032	stim	1		16	AV	8.0				334.78451466560364	0.26665806770324707
159	327.2033689022064	response_window	2		23	AV	8.0				335.0511727333069	0.385098934173584
159	327.55463099479675	response	2	V		AV	8.0	l	0.0	0.35126209259033203	335.4024348258972	
160	327.58846783638	ITI	0		62	VA	2.0				335.43627166748047	1.0311801433563232
160	328.6196479797363	stim	1		10	VA	2.0				336.4674518108368	0.16663384437561035
160	328.78628182411194	response_window	2		28	VA	2.0				336.6340856552124	0.46769213676452637
160	329.2205648422241	response	2	V		VA	2.0	l	1.0	0.4342830181121826	337.0683686733246	
161	329.25397396087646	ITI	0		55	AV	1.0				337.10177779197693	0.9150810241699219
161	330.1690549850464	stim	1		9	AV	1.0				338.01685881614685	0.1497969627380371
161	330.3188519477844	response_window	2		17	AV	1.0				338.1666557788849	0.2831740379333496
161	330.57055497169495	response	2	V		AV	1.0	l	0.0	0.25170302391052246	338.4183588027954	
162	330.6020259857178	ITI	0		54	AV	64.0				338.44982981681824	0.8998579978942871
162	331.50188398361206	stim	1		72	AV	64.0				339.3496878147125	1.1996738910675049
162	332.70155787467957	response_window	2		15	AV	64.0				340.54936170578003	0.2524089813232422
162	332.91948199272156	response	2	A		AV	64.0	a	1.0	0.2179241180419922	340.767285823822	
163	332.9539668560028	ITI	0		61	VA	1.0				340.80177068710327	1.0139141082763672
163	333.9678809642792	stim	1		9	VA	1.0				341.81568479537964	0.14975905418395996
163	334.11764001846313	response_window	2		27	VA	1.0				341.9654438495636	0.45166492462158203
163	334.5354869365692	response	2	A		VA	1.0	a	0.0	0.4178469181060791	342.3832907676697	
164	334.5693049430847	ITI	0		59	VA	8.0				342.4171087741852	0.9812350273132324
164	335.55053997039795	stim	1		16	VA	8.0				343.3983438014984	0.2665979862213135
164	335.81713795661926	response_window	2		25	VA	8.0				343.6649417877197	0.41603684425354004
164	336.20150995254517	response	2	V		VA	8.0	l	1.0	0.3843719959259033	344.04931378364563	
165	336.2331748008728	ITI	0		63	AV	4.0				344.08097863197327	1.0501301288604736
165	337.2833049297333	stim	1		12	AV	4.0				345.13110876083374	0.1998288631439209
165	337.4831337928772	response_window	2		42	AV	4.0				345.33093762397766	0.7019741535186768
165	338.15101885795593	response	2	V		AV	4.0	l	0.0	0.6678850650787354	345.9988226890564	
166	338.1851079463959	ITI	0		67	VA	64.0				346.03291177749634	1.1142618656158447
166	339.2993698120117	stim	1		72	VA	64.0				347.1471736431122	1.1993792057037354
166	340.49874901771545	response_window	2		10	VA	64.0				348.3465528488159	0.16901779174804688
166	340.6334738731384	response	2	V		VA	64.0	l	1.0	0.13472485542297363	348.4812777042389	
167	340.6677668094635	ITI	0		73	VA	4.0				348.51557064056396	1.2139511108398438
167	341.88171792030334	stim	1		12	VA	4.0				349.7295217514038	0.1998140811920166
167	342.08153200149536	response_window	2		45	VA	4.0				349.9293358325958	0.752161979675293
167	342.7993538379669	response	2	A		VA	4.0	a	0.0	0.7178218364715576	350.6471576690674	
168	342.83369398117065	ITI	0		73	AV	16.0				350.6814978122711	1.2139668464660645
168	344.0476608276367	stim	1		24	AV	16.0				351.8954646587372	0.39986705780029297
168	344.447527885437	response_window	2		15	AV	16.0				352.2953317165375	0.2522099018096924
168	344.66547298431396	response	2	A		AV	16.0	a	1.0	0.21794509887695312	352.51327681541443	
169	344.6997377872467	ITI	0		75	AV	8.0				352.54754161834717	1.247300148010254
169	345.94703793525696	stim	1		16	AV	8.0				353.7948417663574	0.26645994186401367
169	346.213497877121	response_window	2		17	AV	8.0				354.06130170822144	0.284945011138916
169	346.4648218154907	response	2	A		AV	8.0	a	1.0	0.251323938369751	354.3126256465912	
170	346.4984428882599	ITI	0		55	AV	8.0				354.34624671936035	0.9147219657897949
170	347.4131648540497	stim	1		16	AV	8.0				355.26096868515015	0.26676011085510254
170	347.6799249649048	response_window	2		16	AV	8.0				355.52772879600525	0.2662069797515869
170	347.9142270088196	response	2	A		AV	8.0	a	1.0	0.23430204391479492	355.76203083992004	
171	347.9461319446564	ITI	0		56	VA	1.0				355.79393577575684	0.9331879615783691
171	348.87931990623474	stim	1		9	VA	1.0				356.7271237373352	0.14979100227355957
171	349.0291109085083	response_window	2		26	VA	1.0				356.87691473960876	0.4356091022491455
171	349.4303069114685	response	2	V		VA	1.0	l	1.0	0.4011960029602051	357.27811074256897	
172	349.46472001075745	ITI	0		70	VA	64.0				357.3125238418579	1.1641888618469238
172	350.62890887260437	stim	1		72	VA	64.0				358.47671270370483	1.1995410919189453
172	351.8284499645233	response_window	2		59	VA	64.0				359.6762537956238	0.9839479923248291
172	352.77909684181213	response	2	V		VA	64.0	l	1.0	0.9506468772888184	360.6269006729126	
173	352.81239795684814	ITI	0		60	VA	4.0				360.6602017879486	0.9985909461975098
173	353.81098890304565	stim	1		12	VA	4.0				361.6587927341461	0.20030999183654785
173	354.0112988948822	response_window	2		48	VA	4.0				361.85910272598267	0.8010299205780029
173	354.7783989906311	response	2	V		VA	4.0	l	1.0	0.7671000957489014	362.62620282173157	
174	354.8123288154602	ITI	0		66	AV	2.0				362.66013264656067	1.09775710105896
174	355.91008591651917	stim	1		10	AV	2.0				363.75788974761963	0.16673493385314941
174	356.0768208503723	response_window	2		26	AV	2.0				363.9246246814728	0.43527793884277344
174	356.47817492485046	response	2	V		AV	2.0	l	0.0	0.4013540744781494	364.3259787559509	
175	356.5120987892151	ITI	0		63	VA	8.0				364.35990262031555	1.0476810932159424
175	357.55977988243103	stim	1		16	VA	8.0				365.4075837135315	0.2668569087982178
175	357.82663679122925	response_window	2		39	VA	8.0				365.6744406223297	0.6514720916748047
175	358.44402980804443	response	2	A		VA	8.0	a	0.0	0.6173930168151855	366.2918336391449	
176	358.47810888290405	ITI	0		63	VA	16.0				366.3259127140045	1.0474319458007812
176	359.52554082870483	stim	1		24	VA	16.0				367.3733446598053	0.4000999927520752
176	359.9256408214569	response_window	2		25	VA	16.0				367.7734446525574	0.41798901557922363
176	360.3098919391632	response	2	V		VA	16.0	l	1.0	0.38425111770629883	368.1576957702637	
177	360.34362983703613	ITI	0		75	VA	1.0				368.1914336681366	1.2481331825256348
177	361.59176301956177	stim	1		9	VA	1.0				369.43956685066223	0.14992380142211914
177	361.7416868209839	response_window	2		34	VA	1.0				369.58949065208435	0.5684330463409424
177	362.2762539386749	response	2	A		VA	1.0	a	0.0	0.53456711769104	370.1240577697754	
178	362.31011986732483	ITI	0		57	AV	4.0				370.1579236984253	0.9478449821472168
178	363.25796484947205	stim	1		12	AV	4.0				371.1057686805725	0.1998460292816162
178	363.45781087875366	response_window	2		27	AV	4.0				371.3056147098541	0.449491024017334
178	363.87557888031006	response	2	V		AV	4.0	l	0.0	0.4177680015563965	371.7233827114105	
179	363.907301902771	ITI	0		57	VA	2.0				371.75510573387146	0.9500041007995605
179	364.85730600357056	stim	1		10	VA	2.0				372.705109834671	0.16663098335266113
179	365.0239369869232	response_window	2		22	VA	2.0				372.8717408180237	0.36847400665283203
179	365.3585088253021	response	2	A		VA	2.0	a	0.0	0.33457183837890625	373.2063126564026	
180	365.39241099357605	ITI	0		70	AV	4.0				373.2402148246765	1.1643428802490234
180	366.5567538738251	stim	1		12	AV	4.0				374.40455770492554	0.19983410835266113
180	366.75658798217773	response_window	2		21	AV	4.0				374.6043918132782	0.3525068759918213
180	367.07403683662415	response	2	V		AV	4.0	l	0.0	0.31744885444641113	374.9218406677246	
181	367.10909485816956	ITI	0		56	AV	16.0				374.95689868927	0.9304111003875732
181	368.03950595855713	stim	1		24	AV	16.0				375.8873097896576	0.39981794357299805
181	368.4393239021301	response_window	2		10	AV	16.0				376.2871277332306	0.16647791862487793
181	368.57381987571716	response	2	A		AV	16.0	a	1.0	0.13449597358703613	376.4216237068176	
182	368.605801820755	ITI	0		60	AV	32.0				376.45360565185547	0.9998531341552734
182	369.6056549549103	stim	1		40	AV	32.0				377.45345878601074	0.666456937789917
182	370.2721118927002	response_window	2		20	AV	32.0				378.11991572380066	0.33550596237182617
182	370.57321882247925	response	2	V		AV	32.0	l	0.0	0.30110692977905273	378.4210226535797	
183	370.607617855072	ITI	0		63	AV	8.0				378.4554216861725	1.0473101139068604
183	371.6549279689789	stim	1		16	AV	8.0				379.50273180007935	0.2665979862213135
183	371.9215259552002	response_window	2		20	AV	8.0				379.76932978630066	0.3347790241241455
183	372.2226049900055	response	2	A		AV	8.0	a	1.0	0.30107903480529785	380.07040882110596	
184	372.25630497932434	ITI	0		64	AV	64.0				380.1041088104248	1.0646209716796875
184	373.320925951004	stim	1		72	AV	64.0				381.1687297821045	1.1995809078216553
184	374.5205068588257	response_window	2		11	AV	64.0				382.36831068992615	0.1855919361114502
184	374.6722459793091	response	2	A		AV	64.0	a	1.0	0.15173912048339844	382.52004981040955	
185	374.70609879493713	ITI	0		63	VA	4.0				382.5539026260376	1.0470530986785889
185	375.7531518936157	stim	1		12	VA	4.0				383.6009557247162	0.19989395141601562
185	375.95304584503174	response_window	2		14	VA	4.0				383.8008496761322	0.23522114753723145
185	376.15443181991577	response	2	V		VA	4.0	l	1.0	0.2013859748840332	384.00223565101624	
186	376.18826699256897	ITI	0		78	VA	8.0				384.03607082366943	1.2980499267578125
186	377.4863169193268	stim	1		16	VA	8.0				385.33412075042725	0.2664830684661865
186	377.75279998779297	response_window	2		22	VA	8.0				385.60060381889343	0.3686048984527588
186	378.0874469280243	response	2	V		VA	8.0	l	1.0	0.33464694023132324	385.93525075912476	
187	378.1214048862457	ITI	0		70	AV	16.0				385.9692087173462	1.164381980895996
187	379.2857868671417	stim	1		24	AV	16.0				387.1335906982422	0.3999619483947754
187	379.6857488155365	response_window	2		17	AV	16.0				387.53355264663696	0.28284215927124023
187	379.9368829727173	response	2	A		AV	16.0	a	1.0	0.25113415718078613	387.78468680381775	
188	379.96859097480774	ITI	0		67	AV	64.0				387.8163948059082	1.1164958477020264
188	381.08508682250977	stim	1		72	AV	64.0				388.93289065361023	1.199774980545044
188	382.2848618030548	response_window	2		17	AV	64.0				390.1326656341553	0.28508520126342773
188	382.53596782684326	response	2	A		AV	64.0	a	1.0	0.25110602378845215	390.3837716579437	
189	382.56994700431824	ITI	0		71	VA	16.0				390.4177508354187	1.1810050010681152
189	383.75095200538635	stim	1		24	VA	16.0				391.5987558364868	0.39986491203308105
189	384.15081691741943	response_window	2		42	VA	16.0				391.9986207485199	0.7012438774108887
189	384.81835985183716	response	2	V		VA	16.0	l	1.0	0.6675429344177246	392.6661636829376	
190	384.8520607948303	ITI	0		57	AV	2.0				392.6998646259308	0.9482312202453613
190	385.8002920150757	stim	1		10	AV	2.0				393.64809584617615	0.16658592224121094
190	385.9668779373169	response_window	2		27	AV	2.0				393.81468176841736	0.45219898223876953
190	386.3844859600067	response	2	V		AV	2.0	l	0.0	0.41760802268981934	394.2322897911072	
191	386.41907691955566	ITI	0		71	VA	16.0				394.2668807506561	1.1807169914245605
191	387.5997939109802	stim	1		24	VA	16.0				395.4475977420807	0.39990901947021484
191	387.99970293045044	response_window	2		11	VA	16.0				395.8475067615509	0.18498587608337402
191	388.15044593811035	response	2	V		VA	16.0	l	1.0	0.1507430076599121	395.9982497692108	
192	388.1846888065338	ITI	0		69	VA	8.0				396.0324926376343	1.1476681232452393
192	389.33235692977905	stim	1		16	VA	8.0				397.1801607608795	0.2666189670562744
192	389.5989758968353	response_window	2		16	VA	8.0				397.4467797279358	0.26629209518432617
192	389.8335998058319	response	2	V		VA	8.0	l	1.0	0.23462390899658203	397.6814036369324	
193	389.86526799201965	ITI	0		70	VA	2.0				397.7130718231201	1.1665229797363281
193	391.031790971756	stim	1		10	VA	2.0				398.87959480285645	0.16659188270568848
193	391.19838285446167	response_window	2		25	VA	2.0				399.04618668556213	0.4186880588531494
193	391.5824508666992	response	2	V		VA	2.0	l	1.0	0.38406801223754883	399.4302546977997	
194	391.6170709133148	ITI	0		54	VA	16.0				399.4648747444153	0.8975040912628174
194	392.51457500457764	stim	1		24	VA	16.0				400.3623788356781	0.39990997314453125
194	392.91448497772217	response_window	2		43	VA	16.0				400.76228880882263	0.7186849117279053
194	393.5989189147949	response	2	V		VA	16.0	l	1.0	0.6844339370727539	401.4467227458954	
195	393.6331698894501	ITI	0		74	VA	1.0				401.48097372055054	1.2307019233703613
195	394.86387181282043	stim	1		9	VA	1.0				402.7116756439209	0.14994311332702637
195	395.01381492614746	response_window	2		29	VA	1.0				402.8616187572479	0.48552608489990234
195	395.4649918079376	response	2	V		VA	1.0	l	1.0	0.45117688179016113	403.3127956390381	
196	395.49934101104736	ITI	0		70	VA	64.0				403.3471448421478	1.1640009880065918
196	396.66334199905396	stim	1		72	VA	64.0				404.5111458301544	1.1994128227233887
196	397.86275482177734	response_window	2		15	VA	64.0				405.7105586528778	0.25174403190612793
196	398.0808598995209	response	2	V		VA	64.0	l	1.0	0.21810507774353027	405.92866373062134	
197	398.1144988536835	ITI	0		74	AV	64.0				405.96230268478394	1.2311930656433105
197	399.3456919193268	stim	1		72	AV	64.0				407.19349575042725	1.1994750499725342
197	400.5451669692993	response_window	2		13	AV	64.0				408.3929708003998	0.21961688995361328
197	400.7299427986145	response	2	A		AV	64.0	a	1.0	0.18477582931518555	408.57774662971497	
198	400.76478385925293	ITI	0		58	VA	64.0				408.6125876903534	0.9632670879364014
198	401.72805094718933	stim	1		72	VA	64.0				409.5758547782898	1.1997709274291992
198	402.92782187461853	response_window	2		2	VA	64.0				410.775625705719	0.03567814826965332
198	402.93277382850647	response	2	V		VA	64.0	l	1.0	0.004951953887939453	410.78057765960693	
199	402.9635000228882	ITI	0		73	AV	2.0				410.81130385398865	1.2136878967285156
199	404.1771879196167	stim	1		10	AV	2.0				412.02499175071716	0.1667160987854004
199	404.3439040184021	response_window	2		46	AV	2.0				412.19170784950256	0.7682569026947021
199	405.0783247947693	response	2	A		AV	2.0	a	1.0	0.7344207763671875	412.92612862586975	
200	405.1121609210968	ITI	0		63	AV	4.0				412.95996475219727	1.0479960441589355
200	406.16015696525574	stim	1		12	AV	4.0				414.0079607963562	0.19990897178649902
200	406.36006593704224	response_window	2		45	AV	4.0				414.2078697681427	0.7515430450439453
200	407.07793283462524	response	2	A		AV	4.0	a	1.0	0.7178668975830078	414.9257366657257	
201	407.1116089820862	ITI	0		72	VA	64.0				414.95941281318665	1.1976079940795898
201	408.30921697616577	stim	1		72	VA	64.0				416.15702080726624	1.1997368335723877
201	409.50895380973816	response_window	2		55	VA	64.0				417.3567576408386	0.9188611507415771
201	410.3934350013733	response	2	V		VA	64.0	l	1.0	0.8844811916351318	418.24123883247375	
202	410.42781496047974	ITI	0		58	VA	4.0				418.2756187915802	0.9638478755950928
202	411.39166283607483	stim	1		12	VA	4.0				419.2394666671753	0.19977998733520508
202	411.59144282341003	response_window	2		48	VA	4.0				419.4392466545105	0.8021821975708008
202	412.3591208457947	response	2	V		VA	4.0	l	1.0	0.7676780223846436	420.20692467689514	
203	412.39362502098083	ITI	0		60	VA	64.0				420.2414288520813	0.9973618984222412
203	413.3909869194031	stim	1		72	VA	64.0				421.23879075050354	1.1995608806610107
203	414.5905478000641	response_window	2		16	VA	64.0				422.43835163116455	0.2689840793609619
203	414.82533383369446	response	2	V		VA	64.0	l	1.0	0.2347860336303711	422.6731376647949	
204	414.85953187942505	ITI	0		55	VA	16.0				422.7073357105255	0.9136440753936768
204	415.7731759548187	stim	1		24	VA	16.0				423.6209797859192	0.3999309539794922
204	416.1731069087982	response_window	2		46	VA	16.0				424.0209107398987	0.768481969833374
204	416.90755891799927	response	2	V		VA	16.0	l	1.0	0.7344520092010498	424.75536274909973	
205	416.9415888786316	ITI	0		61	VA	1.0				424.78939270973206	1.0142641067504883
205	417.9558529853821	stim	1		9	VA	1.0				425.80365681648254	0.150040864944458
205	418.10589385032654	response_window	2		27	VA	1.0				425.953697681427	0.4493560791015625
205	418.52380299568176	response	2	V		VA	1.0	l	1.0	0.4179091453552246	426.3716068267822	
206	418.5552499294281	ITI	0		72	AV	2.0				426.40305376052856	1.2001938819885254
206	419.7554438114166	stim	1		10	AV	2.0				427.6032476425171	0.16647005081176758
206	419.9219138622284	response_window	2		22	AV	2.0				427.76971769332886	0.3688499927520752
206	420.2565948963165	response	2	A		AV	2.0	a	1.0	0.33468103408813477	428.104398727417	
207	420.29076385498047	ITI	0		72	VA	8.0				428.13856768608093	1.1974079608917236
207	421.4881718158722	stim	1		16	VA	8.0				429.33597564697266	0.26670312881469727
207	421.7548749446869	response_window	2		47	VA	8.0				429.60267877578735	0.7855319976806641
207	422.50587797164917	response	2	V		VA	8.0	l	1.0	0.7510030269622803	430.35368180274963	
208	422.54040694236755	ITI	0		57	VA	4.0				430.388210773468	0.947113037109375
208	423.48751997947693	stim	1		12	VA	4.0				431.3353238105774	0.19994401931762695
208	423.68746399879456	response_window	2		20	VA	4.0				431.535267829895	0.3348979949951172
208	423.9886178970337	response	2	A		VA	4.0	a	0.0	0.30115389823913574	431.83642172813416	
209	424.0223619937897	ITI	0		59	VA	8.0				431.87016582489014	0.9813048839569092
209	425.0036668777466	stim	1		16	VA	8.0				432.85147070884705	0.2665860652923584
209	425.27025294303894	response_window	2		25	VA	8.0				433.1180567741394	0.4162619113922119
209	425.65463185310364	response	2	A		VA	8.0	a	0.0	0.38437891006469727	433.5024356842041	
210	425.68651485443115	ITI	0		63	AV	64.0				433.5343186855316	1.0499601364135742
210	426.7364749908447	stim	1		72	AV	64.0				434.5842788219452	1.1996638774871826
210	427.9361388683319	response_window	2		12	AV	64.0				435.7839426994324	0.20219111442565918
210	428.104101896286	response	2	A		AV	64.0	a	1.0	0.16796302795410156	435.9519057273865	
211	428.13832998275757	ITI	0		61	VA	8.0				435.98613381385803	1.0139498710632324
211	429.1522798538208	stim	1		16	VA	8.0				437.00008368492126	0.26656603813171387
211	429.4188458919525	response_window	2		21	VA	8.0				437.266649723053	0.349592924118042
211	429.7366168498993	response	2	V		VA	8.0	l	1.0	0.31777095794677734	437.58442068099976	
212	429.76843881607056	ITI	0		77	AV	4.0				437.616242647171	1.2832551002502441
212	431.0516939163208	stim	1		12	AV	4.0				438.89949774742126	0.19963693618774414
212	431.25133085250854	response_window	2		46	AV	4.0				439.099134683609	0.7683131694793701
212	431.9857659339905	response	2	A		AV	4.0	a	1.0	0.7344350814819336	439.83356976509094	
213	432.0196440219879	ITI	0		65	VA	1.0				439.8674478530884	1.081131935119629
213	433.10077595710754	stim	1		9	VA	1.0				440.948579788208	0.14982295036315918
213	433.2505989074707	response_window	2		25	VA	1.0				441.09840273857117	0.4163661003112793
213	433.6351788043976	response	2	A		VA	1.0	a	0.0	0.3845798969268799	441.48298263549805	
214	433.666965007782	ITI	0		66	VA	2.0				441.51476883888245	1.0998938083648682
214	434.76685881614685	stim	1		10	VA	2.0				442.6146626472473	0.16675209999084473
214	434.9336109161377	response_window	2		24	VA	2.0				442.78141474723816	0.40204310417175293
214	435.3016619682312	response	2	V		VA	2.0	l	1.0	0.36805105209350586	443.14946579933167	
215	435.33565402030945	ITI	0		63	VA	2.0				443.1834578514099	1.0475118160247803
215	436.38316583633423	stim	1		10	VA	2.0				444.2309696674347	0.16663813591003418
215	436.54980397224426	response_window	2		23	VA	2.0				444.3976078033447	0.38284897804260254
215	436.90094780921936	response	2	V		VA	2.0	l	1.0	0.35114383697509766	444.7487516403198	
216	436.93265295028687	ITI	0		77	VA	16.0				444.78045678138733	1.2832410335540771
216	438.21589398384094	stim	1		24	VA	16.0				446.0636978149414	0.3999178409576416
216	438.6158118247986	response_window	2		32	VA	16.0				446.46361565589905	0.5356199741363525
216	439.1169579029083	response	2	V		VA	16.0	l	1.0	0.5011460781097412	446.9647617340088	
217	439.15143179893494	ITI	0		57	AV	16.0				446.9992356300354	0.9472341537475586
217	440.0986659526825	stim	1		24	AV	16.0				447.94646978378296	0.3996999263763428
217	440.49836587905884	response_window	2		11	AV	16.0				448.3461697101593	0.1829991340637207
217	440.6496868133545	response	2	A		AV	16.0	a	1.0	0.1513209342956543	448.49749064445496	
218	440.68136501312256	ITI	0		75	VA	2.0				448.529168844223	1.2499799728393555
218	441.9313449859619	stim	1		10	VA	2.0				449.7791488170624	0.16665387153625488
218	442.09799885749817	response_window	2		41	VA	2.0				449.94580268859863	0.6857800483703613
218	442.74890089035034	response	2	V		VA	2.0	l	1.0	0.6509020328521729	450.5967047214508	
219	442.78377890586853	ITI	0		55	AV	4.0				450.631582736969	0.9135639667510986
219	443.69734287261963	stim	1		12	AV	4.0				451.5451467037201	0.20000314712524414
219	443.8973460197449	response_window	2		20	AV	4.0				451.74514985084534	0.3353707790374756
219	444.1985638141632	response	2	A		AV	4.0	a	1.0	0.30121779441833496	452.0463676452637	
220	444.23271679878235	ITI	0		54	AV	8.0				452.0805206298828	0.8975801467895508
220	445.1302969455719	stim	1		16	AV	8.0				452.97810077667236	0.2666130065917969
220	445.3969099521637	response_window	2		37	AV	8.0				453.24471378326416	0.6160838603973389
220	445.98138785362244	response	2	A		AV	8.0	a	1.0	0.5844779014587402	453.8291916847229	
221	446.01299381256104	ITI	0		57	AV	2.0				453.8607976436615	0.9499521255493164
221	446.96294593811035	stim	1		10	AV	2.0				454.8107497692108	0.16646504402160645
221	447.12941098213196	response_window	2		21	AV	2.0				454.9772148132324	0.3495919704437256
221	447.44738698005676	response	2	V		AV	2.0	l	0.0	0.3179759979248047	455.2951908111572	
222	447.4790029525757	ITI	0		68	VA	2.0				455.32680678367615	1.1329889297485352
222	448.6119918823242	stim	1		10	VA	2.0				456.4597957134247	0.16682910919189453
222	448.7788209915161	response_window	2		32	VA	2.0				456.6266248226166	0.5355029106140137
222	449.28003096580505	response	2	V		VA	2.0	l	1.0	0.5012099742889404	457.1278347969055	
223	449.3143239021301	ITI	0		61	VA	16.0				457.1621277332306	1.0140860080718994
223	450.328409910202	stim	1		24	VA	16.0				458.1762137413025	0.39972805976867676
223	450.7281379699707	response_window	2		23	VA	16.0				458.57594180107117	0.385469913482666
223	451.0791959762573	response	2	A		VA	16.0	a	0.0	0.3510580062866211	458.9269998073578	
224	451.11360788345337	ITI	0		57	VA	64.0				458.96141171455383	0.9476349353790283
224	452.0612428188324	stim	1		72	VA	64.0				459.90904664993286	1.199620008468628
224	453.260862827301	response_window	2		48	VA	64.0				461.1086666584015	0.801048994064331
224	454.0285258293152	response	2	V		VA	64.0	l	1.0	0.7676630020141602	461.87632966041565	
225	454.06191182136536	ITI	0		69	VA	2.0				461.9097156524658	1.1483080387115479
225	455.2102198600769	stim	1		10	VA	2.0				463.05802369117737	0.16652512550354004
225	455.37674498558044	response_window	2		41	VA	2.0				463.2245488166809	0.6853528022766113
225	456.02794194221497	response	2	V		VA	2.0	l	1.0	0.6511969566345215	463.87574577331543	
226	456.06209778785706	ITI	0		68	VA	64.0				463.9099016189575	1.1307570934295654
226	457.1928548812866	stim	1		72	VA	64.0				465.0406587123871	1.199686050415039
226	458.39254093170166	response_window	2		12	VA	64.0				466.2403447628021	0.2021780014038086
226	458.56023693084717	response	2	V		VA	64.0	l	1.0	0.1676959991455078	466.40804076194763	
227	458.59471893310547	ITI	0		55	AV	2.0				466.44252276420593	0.9139909744262695
227	459.50870990753174	stim	1		10	AV	2.0				467.3565137386322	0.16659307479858398
227	459.6753029823303	response_window	2		29	AV	2.0				467.5231068134308	0.4854569435119629
227	460.12630891799927	response	2	A		AV	2.0	a	1.0	0.4510059356689453	467.97411274909973	
228	460.1607599258423	ITI	0		78	VA	8.0				468.00856375694275	1.2973289489746094
228	461.4580888748169	stim	1		16	VA	8.0				469.30589270591736	0.266430139541626
228	461.7245190143585	response_window	2		23	VA	8.0				469.572322845459	0.38550281524658203
228	462.07578682899475	response	2	V		VA	8.0	l	1.0	0.35126781463623047	469.9235906600952	
229	462.1100218296051	ITI	0		62	AV	64.0				469.95782566070557	1.0308339595794678
229	463.14085578918457	stim	1		72	AV	64.0				470.98865962028503	1.1992740631103516
229	464.3401298522949	response_window	2		17	AV	64.0				472.1879336833954	0.28609395027160645
229	464.5915129184723	response	2	A		AV	64.0	a	1.0	0.25138306617736816	472.43931674957275	
230	464.6262238025665	ITI	0		58	AV	1.0				472.474027633667	0.9637680053710938
230	465.5899918079376	stim	1		9	AV	1.0				473.4377956390381	0.14989113807678223
230	465.7398829460144	response_window	2		38	AV	1.0				473.58768677711487	0.635308027267456
230	466.3411169052124	response	2	A		AV	1.0	a	1.0	0.601233959197998	474.18892073631287	
231	466.37519097328186	ITI	0		56	VA	1.0				474.2229948043823	0.93064284324646
231	467.3058338165283	stim	1		9	VA	1.0				475.1536376476288	0.15018105506896973
231	467.4560148715973	response_window	2		37	VA	1.0				475.30381870269775	0.6186709403991699
231	468.0404598712921	response	2	V		VA	1.0	l	1.0	0.5844449996948242	475.8882637023926	
232	468.07468581199646	ITI	0		55	VA	1.0				475.9224896430969	0.9139471054077148
232	468.9886329174042	stim	1		9	VA	1.0				476.83643674850464	0.15025091171264648
232	469.1388838291168	response_window	2		28	VA	1.0				476.9866876602173	0.4659411907196045
232	469.5731909275055	response	2	V		VA	1.0	l	1.0	0.4343070983886719	477.42099475860596	
233	469.6048250198364	ITI	0		75	AV	32.0				477.4526288509369	1.2500228881835938
233	470.85484790802	stim	1		40	AV	32.0				478.7026517391205	0.6665589809417725
233	471.5214068889618	response_window	2		18	AV	32.0				479.36921072006226	0.30223798751831055
233	471.7893648147583	response	2	A		AV	32.0	a	1.0	0.2679579257965088	479.63716864585876	
234	471.8236448764801	ITI	0		74	AV	8.0				479.67144870758057	1.2302849292755127
234	473.0539298057556	stim	1		16	AV	8.0				480.9017336368561	0.26662111282348633
234	473.3205509185791	response_window	2		19	AV	8.0				481.16835474967957	0.31852197647094727
234	473.6049129962921	response	2	A		AV	8.0	a	1.0	0.2843620777130127	481.4527168273926	
235	473.63907289505005	ITI	0		73	AV	32.0				481.4868767261505	1.2144050598144531
235	474.8534779548645	stim	1		40	AV	32.0				482.70128178596497	0.6665549278259277
235	475.52003288269043	response_window	2		15	AV	32.0				483.3678367137909	0.25249195098876953
235	475.7379229068756	response	2	A		AV	32.0	a	1.0	0.21789002418518066	483.5857267379761	
236	475.7725248336792	ITI	0		77	AV	32.0				483.62032866477966	1.2802460193634033
236	477.0527708530426	stim	1		40	AV	32.0				484.90057468414307	0.6665000915527344
236	477.71927094459534	response_window	2		14	AV	32.0				485.5670747756958	0.23568391799926758
236	477.9203689098358	response	2	A		AV	32.0	a	1.0	0.20109796524047852	485.7681727409363	
237	477.9549548625946	ITI	0		70	AV	16.0				485.80275869369507	1.1636309623718262
237	479.11858582496643	stim	1		24	AV	16.0				486.9663896560669	0.3997490406036377
237	479.51833486557007	response_window	2		35	AV	16.0				487.36613869667053	0.5845961570739746
237	480.0697498321533	response	2	V		AV	16.0	l	0.0	0.551414966583252	487.9175536632538	
238	480.10293102264404	ITI	0		64	AV	4.0				487.9507348537445	1.0650248527526855
238	481.16795587539673	stim	1		12	AV	4.0				489.0157597064972	0.19997596740722656
238	481.36793184280396	response_window	2		33	AV	4.0				489.2157356739044	0.5495650768280029
238	481.88572001457214	response	2	V		AV	4.0	l	0.0	0.5177881717681885	489.7335238456726	
239	481.91749691963196	ITI	0		59	AV	32.0				489.7653007507324	0.983414888381958
239	482.9009118080139	stim	1		40	AV	32.0				490.7487156391144	0.6660101413726807
239	483.5669219493866	response_window	2		12	AV	32.0				491.41472578048706	0.2023930549621582
239	483.7350559234619	response	2	A		AV	32.0	a	1.0	0.16813397407531738	491.5828597545624	
240	483.76931500434875	ITI	0		60	AV	16.0				491.6171188354492	0.9974589347839355
240	484.7667739391327	stim	1		24	AV	16.0				492.61457777023315	0.39980387687683105
240	485.1665778160095	response_window	2		18	AV	16.0				493.01438164711	0.30234408378601074
240	485.4346218109131	response	2	A		AV	16.0	a	1.0	0.26804399490356445	493.28242564201355	
241	485.46892189979553	ITI	0		69	VA	1.0				493.316725730896	1.1473720073699951
241	486.6162939071655	stim	1		9	VA	1.0				494.464097738266	0.14995598793029785
241	486.7662498950958	response_window	2		28	VA	1.0				494.6140537261963	0.46804308891296387
241	487.20065784454346	response	2	V		VA	1.0	l	1.0	0.43440794944763184	495.0484616756439	
242	487.2342929840088	ITI	0		75	AV	2.0				495.08209681510925	1.2480440139770508
242	488.48233699798584	stim	1		10	AV	2.0				496.3301408290863	0.16644597053527832
242	488.6487829685211	response_window	2		26	AV	2.0				496.4965867996216	0.4326488971710205
242	489.0500159263611	response	2	A		AV	2.0	a	1.0	0.4012329578399658	496.89781975746155	
243	489.08143186569214	ITI	0		66	AV	1.0				496.9292356967926	1.1001300811767578
243	490.1815619468689	stim	1		9	AV	1.0				498.02936577796936	0.1499478816986084
243	490.3315098285675	response_window	2		18	AV	1.0				498.17931365966797	0.29966306686401367
243	490.59916281700134	response	2	V		AV	1.0	l	0.0	0.2676529884338379	498.4469666481018	
244	490.6311728954315	ITI	0		54	VA	64.0				498.478976726532	0.8998720645904541
244	491.531044960022	stim	1		72	VA	64.0				499.37884879112244	1.2000629901885986
244	492.73110795021057	response_window	2		16	VA	64.0				500.57891178131104	0.26845598220825195
244	492.96557998657227	response	2	V		VA	64.0	l	1.0	0.23447203636169434	500.81338381767273	
245	492.9995639324188	ITI	0		55	VA	32.0				500.8473677635193	0.9140429496765137
245	493.91360688209534	stim	1		40	VA	32.0				501.7614107131958	0.6664600372314453
245	494.5800669193268	response_window	2		24	VA	32.0				502.42787075042725	0.3995630741119385
245	494.9474868774414	response	2	V		VA	32.0	l	1.0	0.367419958114624	502.79529070854187	
246	494.9796299934387	ITI	0		54	AV	32.0				502.8274338245392	0.9001259803771973
246	495.8797559738159	stim	1		40	AV	32.0				503.7275598049164	0.6663548946380615
246	496.546110868454	response_window	2		13	AV	32.0				504.39391469955444	0.2188260555267334
246	496.7306399345398	response	2	A		AV	32.0	a	1.0	0.18452906608581543	504.57844376564026	
247	496.7649369239807	ITI	0		54	AV	1.0				504.6127407550812	0.8974509239196777
247	497.6623878479004	stim	1		9	AV	1.0				505.51019167900085	0.15009117126464844
247	497.81247901916504	response_window	2		42	AV	1.0				505.6602828502655	0.7021389007568359
247	498.47999000549316	response	2	A		AV	1.0	a	1.0	0.667510986328125	506.3277938365936	
248	498.5146179199219	ITI	0		60	AV	4.0				506.36242175102234	0.9973030090332031
248	499.5119209289551	stim	1		12	AV	4.0				507.35972476005554	0.19987893104553223
248	499.7117998600006	response_window	2		36	AV	4.0				507.5596036911011	0.6020700931549072
248	500.2795968055725	response	2	V		AV	4.0	l	0.0	0.5677969455718994	508.127400636673	
249	500.3138699531555	ITI	0		58	VA	64.0				508.161673784256	0.9640810489654541
249	501.277951002121	stim	1		72	VA	64.0				509.12575483322144	1.199556827545166
249	502.47750782966614	response_window	2		18	VA	64.0				510.3253116607666	0.301267147064209
249	502.7454068660736	response	2	V		VA	64.0	l	1.0	0.2678990364074707	510.5932106971741	
250	502.77877497673035	ITI	0		72	AV	64.0				510.6265788078308	1.1982498168945312
250	503.9770247936249	stim	1		72	AV	64.0				511.82482862472534	1.1991360187530518
250	505.17616081237793	response_window	2		26	AV	64.0				513.0239646434784	0.4353210926055908
250	505.57744884490967	response	2	V		AV	64.0	l	0.0	0.4012880325317383	513.4252526760101	
251	505.6114819049835	ITI	0		67	VA	32.0				513.459285736084	1.1144208908081055
251	506.7259027957916	stim	1		40	VA	32.0				514.5737066268921	0.666600227355957
251	507.3925030231476	response_window	2		65	VA	32.0				515.240306854248	1.084798812866211
251	508.4429488182068	response	2	V		VA	32.0	l	1.0	1.050445795059204	516.2907526493073	
252	508.4773018360138	ITI	0		74	AV	1.0				516.3251056671143	1.2309231758117676
252	509.70822501182556	stim	1		9	AV	1.0				517.556028842926	0.15000581741333008
252	509.8582308292389	response_window	2		40	AV	1.0				517.7060346603394	0.6683030128479004
252	510.4923119544983	response	2	A		AV	1.0	a	1.0	0.6340811252593994	518.3401157855988	
253	510.5265338420868	ITI	0		67	VA	16.0				518.3743376731873	1.114408016204834
253	511.6409418582916	stim	1		24	VA	16.0				519.4887456893921	0.39974308013916016
253	512.0406849384308	response_window	2		33	VA	16.0				519.8884887695312	0.5524330139160156
253	512.5583698749542	response	2	V		VA	16.0	l	1.0	0.5176849365234375	520.4061737060547	
254	512.5931179523468	ITI	0		76	VA	4.0				520.4409217834473	1.2638189792633057
254	513.8569369316101	stim	1		12	VA	4.0				521.7047407627106	0.19992804527282715
254	514.0568649768829	response_window	2		25	VA	4.0				521.9046688079834	0.41891002655029297
254	514.4414989948273	response	2	A		VA	4.0	a	0.0	0.38463401794433594	522.2893028259277	
255	514.4757750034332	ITI	0		60	VA	4.0				522.3235788345337	0.997169017791748
255	515.472944021225	stim	1		12	VA	4.0				523.3207478523254	0.19990992546081543
255	515.6728539466858	response_window	2		35	VA	4.0				523.5206577777863	0.5842230319976807
255	516.2239909172058	response	2	V		VA	4.0	l	1.0	0.5511369705200195	524.0717947483063	
256	516.2570769786835	ITI	0		63	VA	1.0				524.1048808097839	1.0487539768218994
256	517.3058309555054	stim	1		9	VA	1.0				525.1536347866058	0.15012502670288086
256	517.4559559822083	response_window	2		18	VA	1.0				525.3037598133087	0.2992730140686035
256	517.723385810852	response	2	V		VA	1.0	l	1.0	0.26742982864379883	525.5711896419525	
257	517.7552289962769	ITI	0		75	VA	4.0				525.6030328273773	1.2501909732818604
257	519.0054199695587	stim	1		12	VA	4.0				526.8532238006592	0.19975900650024414
257	519.205178976059	response_window	2		15	VA	4.0				527.0529828071594	0.2522749900817871
257	519.4228010177612	response	2	V		VA	4.0	l	1.0	0.2176220417022705	527.2706048488617	
258	519.4574539661407	ITI	0		55	VA	4.0				527.3052577972412	0.9139728546142578
258	520.371426820755	stim	1		12	VA	4.0				528.2192306518555	0.19995617866516113
258	520.5713829994202	response_window	2		24	VA	4.0				528.4191868305206	0.39952993392944336
258	520.9394638538361	response	2	V		VA	4.0	l	1.0	0.36808085441589355	528.7872676849365	
259	520.9709129333496	ITI	0		67	VA	1.0				528.8187167644501	1.116731882095337
259	522.087644815445	stim	1		9	VA	1.0				529.9354486465454	0.14975309371948242
259	522.2373979091644	response_window	2		10	VA	1.0				530.0852017402649	0.16910696029663086
259	522.3722050189972	response	2	V		VA	1.0	l	1.0	0.13480710983276367	530.2200088500977	
260	522.4065048694611	ITI	0		65	AV	64.0				530.2543087005615	1.0806140899658203
260	523.4871189594269	stim	1		72	AV	64.0				531.3349227905273	1.1995809078216553
260	524.6866998672485	response_window	2		15	AV	64.0				532.534503698349	0.25249314308166504
260	524.9046368598938	response	2	A		AV	64.0	a	1.0	0.21793699264526367	532.7524406909943	
261	524.9391930103302	ITI	0		67	AV	32.0				532.7869968414307	1.1135528087615967
261	526.0527458190918	stim	1		40	AV	32.0				533.9005496501923	0.666715145111084
261	526.7194609642029	response_window	2		15	AV	32.0				534.5672647953033	0.2514798641204834
261	526.9373250007629	response	2	A		AV	32.0	a	1.0	0.2178640365600586	534.7851288318634	
262	526.9709408283234	ITI	0		71	AV	2.0				534.8187446594238	1.181190013885498
262	528.1521308422089	stim	1		10	AV	2.0				535.9999346733093	0.16662096977233887
262	528.3187518119812	response_window	2		22	AV	2.0				536.1665556430817	0.36864399909973145
262	528.6530199050903	response	2	A		AV	2.0	a	1.0	0.33426809310913086	536.5008237361908	
263	528.6873958110809	ITI	0		71	VA	32.0				536.5351996421814	1.180922031402588
263	529.8683178424835	stim	1		40	VA	32.0				537.716121673584	0.666140079498291
263	530.5344579219818	response_window	2		19	VA	32.0				538.3822617530823	0.31929707527160645
263	530.819109916687	response	2	V		VA	32.0	l	1.0	0.2846519947052002	538.6669137477875	
264	530.8537549972534	ITI	0		77	AV	4.0				538.7015588283539	1.2804558277130127
264	532.1342108249664	stim	1		12	AV	4.0				539.9820146560669	0.19985008239746094
264	532.3340609073639	response_window	2		48	AV	4.0				540.1818647384644	0.8016688823699951
264	533.1016278266907	response	2	A		AV	4.0	a	1.0	0.7675669193267822	540.9494316577911	
265	533.1357297897339	ITI	0		65	VA	8.0				540.9835336208344	1.0810720920562744
265	534.2168018817902	stim	1		16	VA	8.0				542.0646057128906	0.26648592948913574
265	534.4832878112793	response_window	2		39	VA	8.0				542.3310916423798	0.652101993560791
265	535.1007828712463	response	2	V		VA	8.0	l	1.0	0.617495059967041	542.9485867023468	
266	535.1353898048401	ITI	0		60	VA	16.0				542.9831936359406	0.9974720478057861
266	536.1328618526459	stim	1		24	VA	16.0				543.9806656837463	0.3996620178222656
266	536.5325238704681	response_window	2		40	VA	16.0				544.3803277015686	0.6688759326934814
266	537.1671049594879	response	2	V		VA	16.0	l	1.0	0.6345810890197754	545.0149087905884	
267	537.2013998031616	ITI	0		63	AV	2.0				545.0492036342621	1.04740309715271
267	538.2488029003143	stim	1		10	AV	2.0				546.0966067314148	0.16653895378112793
267	538.4153418540955	response_window	2		18	AV	2.0				546.2631456851959	0.29944515228271484
267	538.683406829834	response	2	A		AV	2.0	a	1.0	0.2680649757385254	546.5312106609344	
268	538.7147870063782	ITI	0		65	VA	1.0				546.5625908374786	1.0832808017730713
268	539.7980678081512	stim	1		9	VA	1.0				547.6458716392517	0.1502091884613037
268	539.9482769966125	response_window	2		34	VA	1.0				547.796080827713	0.56797194480896
268	540.4828038215637	response	2	V		VA	1.0	l	1.0	0.5345268249511719	548.3306076526642	
269	540.5162489414215	ITI	0		57	VA	1.0				548.364052772522	0.9477179050445557
269	541.4639668464661	stim	1		9	VA	1.0				549.3117706775665	0.15022802352905273
269	541.6141948699951	response_window	2		21	VA	1.0				549.4619987010956	0.34957098960876465
269	541.9327449798584	response	2	V		VA	1.0	l	1.0	0.31855010986328125	549.7805488109589	
270	541.9637658596039	ITI	0		56	AV	4.0				549.8115696907043	0.9334499835968018
270	542.8972158432007	stim	1		12	AV	4.0				550.7450196743011	0.20002102851867676
270	543.0972368717194	response_window	2		19	AV	4.0				550.9450407028198	0.31769704818725586
270	543.3814318180084	response	2	V		AV	4.0	l	0.0	0.2841949462890625	551.2292356491089	
271	543.4149339199066	ITI	0		68	AV	4.0				551.2627377510071	1.1316490173339844
271	544.5465829372406	stim	1		12	AV	4.0				552.3943867683411	0.2000749111175537
271	544.7466578483582	response_window	2		24	AV	4.0				552.5944616794586	0.40198397636413574
271	545.1141948699951	response	2	V		AV	4.0	l	0.0	0.3675370216369629	552.9619987010956	
272	545.1486418247223	ITI	0		60	VA	2.0				552.9964456558228	0.9974720478057861
272	546.1461138725281	stim	1		10	VA	2.0				553.9939177036285	0.1665511131286621
272	546.3126649856567	response_window	2		32	VA	2.0				554.1604688167572	0.5328998565673828
272	546.8135328292847	response	2	A		VA	2.0	a	0.0	0.5008678436279297	554.6613366603851	
273	546.8455648422241	ITI	0		67	VA	16.0				554.6933686733246	1.1165449619293213
273	547.9621098041534	stim	1		24	VA	16.0				555.8099136352539	0.3997781276702881
273	548.3618879318237	response_window	2		32	VA	16.0				556.2096917629242	0.5347869396209717
273	548.8631420135498	response	2	A		VA	16.0	a	0.0	0.5012540817260742	556.7109458446503	
274	548.8966748714447	ITI	0		54	VA	2.0				556.7444787025452	0.898277997970581
274	549.7949528694153	stim	1		10	VA	2.0				557.6427567005157	0.16646409034729004
274	549.9614169597626	response_window	2		27	VA	2.0				557.809220790863	0.45208287239074707
274	550.3790199756622	response	2	A		VA	2.0	a	0.0	0.4176030158996582	558.2268238067627	
275	550.4134998321533	ITI	0		77	VA	1.0				558.2613036632538	1.2807400226593018
275	551.6942398548126	stim	1		9	VA	1.0				559.5420436859131	0.14993810653686523
275	551.8441779613495	response_window	2		39	VA	1.0				559.69198179245	0.6517529487609863
275	552.4617218971252	response	2	V		VA	1.0	l	1.0	0.6175439357757568	560.3095257282257	
276	552.4959309101105	ITI	0		66	VA	2.0				560.3437347412109	1.0975079536437988
276	553.5934388637543	stim	1		10	VA	2.0				561.4412426948547	0.16673612594604492
276	553.7601749897003	response_window	2		23	VA	2.0				561.6079788208008	0.38436388969421387
276	554.11132979393	response	2	V		VA	2.0	l	1.0	0.35115480422973633	561.9591336250305	
277	554.1445388793945	ITI	0		63	VA	32.0				561.992342710495	1.048327922821045
277	555.1928668022156	stim	1		40	VA	32.0				563.040670633316	0.6666080951690674
277	555.8594748973846	response_window	2		19	VA	32.0				563.7072787284851	0.318864107131958
277	556.14373087883	response	2	V		VA	32.0	l	1.0	0.2842559814453125	563.9915347099304	
278	556.1783390045166	ITI	0		59	AV	64.0				564.0261428356171	0.98055100440979
278	557.1588900089264	stim	1		72	AV	64.0				565.0066938400269	1.199800968170166
278	558.3586909770966	response_window	2		14	AV	64.0				566.206494808197	0.23494195938110352
278	558.5600299835205	response	2	A		AV	64.0	a	1.0	0.2013390064239502	566.407833814621	
279	558.5936329364777	ITI	0		76	AV	16.0				566.4414367675781	1.2645049095153809
279	559.858137845993	stim	1		24	AV	16.0				567.7059416770935	0.39987802505493164
279	560.258015871048	response_window	2		50	AV	16.0				568.1058197021484	0.8355050086975098
279	561.0587809085846	response	2	A		AV	16.0	a	1.0	0.8007650375366211	568.9065847396851	
