trial_nr	onset	event_type	phase	response	nr_frames	order	soa	key	correct	RT_   0	onset_abs	duration
0	0.010186910629272461	ITI	0		75	VA	16.0				7.178554058074951	1.2500200271606445
0	1.260206937789917	stim	1		24	VA	16.0				8.428574085235596	0.3999171257019043
0	1.6601240634918213	response_window	2		46	VA	16.0				8.8284912109375	0.8377749919891357
0	2.4639339447021484	response	2	A		VA	16.0	a	0.0	0.8038098812103271	9.632301092147827	
1	2.497899055480957	ITI	0		71	VA	32.0				9.666266202926636	1.1805109977722168
1	2.580893039703369	response	0			VA	32.0	a			9.749260187149048	
1	3.678410053253174	stim	1		40	VA	32.0				10.846777200698853	0.6666159629821777
1	4.345026016235352	response_window	2		46	VA	32.0				11.51339316368103	0.7699549198150635
1	5.079434871673584	response	2	V		VA	32.0	l	1.0	0.7344088554382324	12.247802019119263	
2	5.114980936050415	ITI	0		76	VA	2.0				12.283348083496094	1.2625510692596436
2	6.377532005310059	stim	1		10	VA	2.0				13.545899152755737	0.16668987274169922
2	6.544221878051758	response_window	2		37	VA	2.0				13.712589025497437	0.6198620796203613
2	7.128800868988037	response	2	A		VA	2.0	a	0.0	0.5845789909362793	14.297168016433716	
3	7.164083957672119	ITI	0		71	VA	4.0				14.332451105117798	1.1797020435333252
3	8.343786001205444	stim	1		12	VA	4.0				15.512153148651123	0.19980788230895996
3	8.543593883514404	response_window	2		33	VA	4.0				15.711961030960083	0.5534441471099854
3	9.061438083648682	response	2	V		VA	4.0	l	1.0	0.5178442001342773	16.22980523109436	
4	9.09703803062439	ITI	0		57	VA	4.0				16.26540517807007	0.9459738731384277
4	10.043011903762817	stim	1		12	VA	4.0				17.211379051208496	0.19984912872314453
4	10.242861032485962	response_window	2		34	VA	4.0				17.41122817993164	0.5659480094909668
4	10.777754068374634	response	2	V		VA	4.0	l	1.0	0.5348930358886719	17.946121215820312	
5	10.808809041976929	ITI	0		77	AV	4.0				17.977176189422607	1.283613920211792
5	12.09242296218872	stim	1		12	AV	4.0				19.2607901096344	0.199876070022583
5	12.292299032211304	response_window	2		52	AV	4.0				19.460666179656982	0.8696808815002441
5	13.126437902450562	response	2	A		AV	4.0	a	1.0	0.8341388702392578	20.29480504989624	
6	13.161979913711548	ITI	0		74	VA	2.0				20.330347061157227	1.2296321392059326
6	14.39161205291748	stim	1		10	VA	2.0				21.55997920036316	0.1665940284729004
6	14.55820608139038	response_window	2		34	VA	2.0				21.72657322883606	0.5698909759521484
6	15.092555046081543	response	2	A		VA	2.0	a	0.0	0.5343489646911621	22.26092219352722	
7	15.12809705734253	ITI	0		78	AV	16.0				22.296464204788208	1.2960729598999023
7	16.42417001724243	stim	1		24	AV	16.0				23.59253716468811	0.40006399154663086
7	16.824234008789062	response_window	2		31	AV	16.0				23.99260115623474	0.5197839736938477
7	17.308709859848022	response	2	A		AV	16.0	a	1.0	0.48447585105895996	24.4770770072937	
8	17.34401798248291	ITI	0		75	VA	64.0				24.51238512992859	1.2459380626678467
8	18.589956045150757	stim	1		72	VA	64.0				25.758323192596436	1.1997418403625488
8	19.52469801902771	response	1			VA	64.0	l			26.69306516647339	
8	19.789697885513306	response_window	2		144	VA	64.0				26.958065032958984	2.3992881774902344
9	22.18898606300354	ITI	0		61	AV	64.0				29.35735321044922	1.0162498950958252
9	23.205235958099365	stim	1		72	AV	64.0				30.373603105545044	1.199610948562622
9	24.404846906661987	response_window	2		7	AV	64.0				31.573214054107666	0.11949515342712402
9	24.489534854888916	response	2	A		AV	64.0	a	1.0	0.08468794822692871	31.657902002334595	
10	24.52434206008911	ITI	0		58	VA	32.0				31.69270920753479	0.9634039402008057
10	25.487746000289917	stim	1		40	VA	32.0				32.656113147735596	0.6663980484008789
10	26.154144048690796	response_window	2		70	VA	32.0				33.322511196136475	1.1690959930419922
10	27.28836989402771	response	2	V		VA	32.0	l	1.0	1.134225845336914	34.45673704147339	
11	27.323240041732788	ITI	0		57	VA	0.0				34.49160718917847	0.9468379020690918
11	28.27007794380188	stim	1		8	VA	0.0				35.43844509124756	0.13336801528930664
11	28.403445959091187	response_window	2		105	VA	0.0				35.571813106536865	1.7516019344329834
11	30.12115788459778	response	2	V		VA	0.0	l	1.0	1.7177119255065918	37.28952503204346	
12	30.15504789352417	ITI	0		63	VA	4.0				37.32341504096985	1.0475730895996094
12	31.20262098312378	stim	1		12	VA	4.0				38.37098813056946	0.19982290267944336
12	31.402443885803223	response_window	2		52	VA	4.0				38.5708110332489	0.868887186050415
12	32.23666191101074	response	2	A		VA	4.0	a	0.0	0.8342180252075195	39.40502905845642	
13	32.27133107185364	ITI	0		63	AV	8.0				39.439698219299316	1.046947956085205
13	33.31827902793884	stim	1		16	AV	8.0				40.48664617538452	0.26675891876220703
13	33.58503794670105	response_window	2		42	AV	8.0				40.75340509414673	0.7020881175994873
13	34.25283885002136	response	2	A		AV	8.0	a	1.0	0.6678009033203125	41.42120599746704	
14	34.28712606430054	ITI	0		58	VA	4.0				41.455493211746216	0.9639909267425537
14	35.25111699104309	stim	1		12	VA	4.0				42.41948413848877	0.19989585876464844
14	35.45101284980774	response_window	2		37	VA	4.0				42.61937999725342	0.6189332008361816
14	36.035496950149536	response	2	A		VA	4.0	a	0.0	0.5844841003417969	43.203864097595215	
15	36.06994605064392	ITI	0		69	AV	64.0				43.2383131980896	1.1474637985229492
15	37.21740984916687	stim	1		72	AV	64.0				44.38577699661255	1.1995000839233398
15	38.41690993309021	response_window	2		4	AV	64.0				45.58527708053589	0.06887292861938477
15	38.45162487030029	response	2	A		AV	64.0	a	1.0	0.03471493721008301	45.61999201774597	
16	38.485782861709595	ITI	0		71	VA	0.0				45.65415000915527	1.1805751323699951
16	39.66635799407959	stim	1		8	VA	0.0				46.83472514152527	0.13327503204345703
16	39.79963302612305	response_window	2		52	VA	0.0				46.968000173568726	0.8687958717346191
16	40.63385891914368	response	2	V		VA	0.0	l	1.0	0.8342258930206299	47.802226066589355	
17	40.668428897857666	ITI	0		76	AV	2.0				47.836796045303345	1.2638671398162842
17	41.93229603767395	stim	1		10	AV	2.0				49.10066318511963	0.1666109561920166
17	42.09890699386597	response_window	2		42	AV	2.0				49.267274141311646	0.7016758918762207
17	42.766823053359985	response	2	V		AV	2.0	l	0.0	0.6679160594940186	49.935190200805664	
18	42.80058288574219	ITI	0		66	VA	4.0				49.968950033187866	1.0976991653442383
18	43.898282051086426	stim	1		12	VA	4.0				51.066649198532104	0.19988584518432617
18	44.09816789627075	response_window	2		68	VA	4.0				51.26653504371643	1.1350929737091064
18	45.19913697242737	response	2	A		VA	4.0	a	0.0	1.1009690761566162	52.36750411987305	
19	45.23326086997986	ITI	0		78	AV	8.0				52.40162801742554	1.297666072845459
19	46.53092694282532	stim	1		16	AV	8.0				53.699294090270996	0.266247034072876
19	46.79717397689819	response_window	2		84	AV	8.0				53.96554112434387	1.4017400741577148
19	48.16503405570984	response	2	A		AV	8.0	a	1.0	1.3678600788116455	55.33340120315552	
20	48.19891405105591	ITI	0		60	VA	2.0				55.36728119850159	0.9975810050964355
20	49.196495056152344	stim	1		10	VA	2.0				56.36486220359802	0.16655802726745605
20	49.3630530834198	response_window	2		60	VA	2.0				56.53142023086548	1.001682996749878
20	50.33092498779297	response	2	V		VA	2.0	l	1.0	0.967871904373169	57.49929213523865	
21	50.36473608016968	ITI	0		58	AV	2.0				57.533103227615356	0.9645798206329346
21	51.32931590080261	stim	1		10	AV	2.0				58.49768304824829	0.1665639877319336
21	51.495879888534546	response_window	2		57	AV	2.0				58.664247035980225	0.9515380859375
21	52.41416096687317	response	2	V		AV	2.0	l	0.0	0.918281078338623	59.58252811431885	
22	52.447417974472046	ITI	0		57	AV	8.0				59.615785121917725	0.9475369453430176
22	53.39495491981506	stim	1		16	AV	8.0				60.56332206726074	0.2666029930114746
22	53.66155791282654	response_window	2		48	AV	8.0				60.82992506027222	0.8023099899291992
22	54.429548025131226	response	2	A		AV	8.0	a	1.0	0.7679901123046875	61.597915172576904	
23	54.46386790275574	ITI	0		74	VA	0.0				61.632235050201416	1.2301599979400635
23	55.6940279006958	stim	1		8	VA	0.0				62.86239504814148	0.13351702690124512
23	55.827544927597046	response_window	2		61	VA	0.0				62.995912075042725	1.0191900730133057
23	56.811797857284546	response	2	A		VA	0.0	a	0.0	0.9842529296875	63.980165004730225	
24	56.84673500061035	ITI	0		78	AV	64.0				64.01510214805603	1.2968008518218994
24	58.14353585243225	stim	1		72	AV	64.0				65.31190299987793	1.1996440887451172
24	59.34317994117737	response_window	2		44	AV	64.0				66.51154708862305	0.735288143157959
24	60.044151067733765	response	2	A		AV	64.0	a	1.0	0.7009711265563965	67.21251821517944	
25	60.07846808433533	ITI	0		63	AV	4.0				67.246835231781	1.047306776046753
25	61.12577486038208	stim	1		12	AV	4.0				68.29414200782776	0.1999340057373047
25	61.325708866119385	response_window	2		75	AV	4.0				68.49407601356506	1.2513091564178467
25	62.543232917785645	response	2	A		AV	4.0	a	1.0	1.2175240516662598	69.71160006523132	
26	62.57701802253723	ITI	0		76	VA	16.0				69.74538516998291	1.2644200325012207
26	63.84143805503845	stim	1		24	VA	16.0				71.00980520248413	0.3998680114746094
26	64.24130606651306	response_window	2		49	VA	16.0				71.40967321395874	0.8181359767913818
26	65.02620601654053	response	2	V		VA	16.0	l	1.0	0.7848999500274658	72.1945731639862	
27	65.05944204330444	ITI	0		74	AV	4.0				72.22780919075012	1.2311639785766602
27	66.2906060218811	stim	1		12	AV	4.0				73.45897316932678	0.20002985000610352
27	66.4906358718872	response_window	2		41	AV	4.0				73.65900301933289	0.6829850673675537
27	67.14150190353394	response	2	A		AV	4.0	a	1.0	0.6508660316467285	74.30986905097961	
28	67.17362093925476	ITI	0		55	AV	16.0				74.34198808670044	0.9162211418151855
28	68.08984208106995	stim	1		24	AV	16.0				75.25820922851562	0.3998379707336426
28	68.48968005180359	response_window	2		66	AV	16.0				75.65804719924927	1.0996639728546143
28	69.5574209690094	response	2	V		AV	16.0	l	0.0	1.0677409172058105	76.72578811645508	
29	69.5893440246582	ITI	0		71	VA	8.0				76.75771117210388	1.1831738948822021
29	70.7725179195404	stim	1		16	VA	8.0				77.94088506698608	0.2666499614715576
29	71.03916788101196	response_window	2		44	VA	8.0				78.20753502845764	0.7354040145874023
29	71.74022889137268	response	2	V		VA	8.0	l	1.0	0.7010610103607178	78.90859603881836	
30	71.77457189559937	ITI	0		60	AV	16.0				78.94293904304504	0.997265100479126
30	72.77183699607849	stim	1		24	AV	16.0				79.94020414352417	0.3998229503631592
30	73.17165994644165	response_window	2		32	AV	16.0				80.34002709388733	0.5348551273345947
30	73.67287492752075	response	2	A		AV	16.0	a	1.0	0.5012149810791016	80.84124207496643	
31	73.70651507377625	ITI	0		67	VA	0.0				80.87488222122192	1.114473819732666
31	74.82098889350891	stim	1		8	VA	0.0				81.98935604095459	0.13335800170898438
31	74.9543468952179	response_window	2		78	VA	0.0				82.12271404266357	1.301793098449707
31	76.22196793556213	response	2	V		VA	0.0	l	1.0	1.2676210403442383	83.39033508300781	
32	76.2561399936676	ITI	0		75	VA	0.0				83.42450714111328	1.247534990310669
32	77.50367498397827	stim	1		8	VA	0.0				84.67204213142395	0.13297390937805176
32	77.63664889335632	response_window	2		48	VA	0.0				84.805016040802	0.8023371696472168
32	78.40470385551453	response	2	A		VA	0.0	a	0.0	0.7680549621582031	85.5730710029602	
33	78.43898606300354	ITI	0		73	VA	16.0				85.60735321044922	1.213932991027832
33	79.65291905403137	stim	1		24	VA	16.0				86.82128620147705	0.3998830318450928
33	80.05280208587646	response_window	2		29	VA	16.0				87.22116923332214	0.485522985458374
33	80.50380897521973	response	2	V		VA	16.0	l	1.0	0.4510068893432617	87.6721761226654	
34	80.53832507133484	ITI	0		71	VA	32.0				87.70669221878052	1.1805038452148438
34	81.71882891654968	stim	1		40	VA	32.0				88.88719606399536	0.6664619445800781
34	82.38529086112976	response_window	2		31	VA	32.0				89.55365800857544	0.51900315284729
34	82.8698320388794	response	2	V		VA	32.0	l	1.0	0.4845411777496338	90.03819918632507	
35	82.90429401397705	ITI	0		72	VA	0.0				90.07266116142273	1.1970479488372803
35	84.10134196281433	stim	1		8	VA	0.0				91.26970911026001	0.13346004486083984
35	84.23480200767517	response_window	2		49	VA	0.0				91.40316915512085	0.8177380561828613
35	85.0191559791565	response	2	V		VA	0.0	l	1.0	0.7843539714813232	92.18752312660217	
36	85.05254006385803	ITI	0		54	AV	16.0				92.22090721130371	0.8983199596405029
36	85.95086002349854	stim	1		24	AV	16.0				93.11922717094421	0.39981603622436523
36	86.3506760597229	response_window	2		45	AV	16.0				93.51904320716858	0.7524068355560303
36	87.06826400756836	response	2	A		AV	16.0	a	1.0	0.717587947845459	94.23663115501404	
37	87.10308289527893	ITI	0		69	AV	4.0				94.27145004272461	1.1466631889343262
37	88.24974608421326	stim	1		12	AV	4.0				95.41811323165894	0.20007085800170898
37	88.44981694221497	response_window	2		47	AV	4.0				95.61818408966064	0.7854299545288086
37	89.2010428905487	response	2	A		AV	4.0	a	1.0	0.7512259483337402	96.36941003799438	
38	89.23524689674377	ITI	0		78	VA	16.0				96.40361404418945	1.2972631454467773
38	90.53251004219055	stim	1		24	VA	16.0				97.70087718963623	0.3997039794921875
38	90.93221402168274	response_window	2		25	VA	16.0				98.10058116912842	0.4187939167022705
38	91.31690692901611	response	2	V		VA	16.0	l	1.0	0.384692907333374	98.48527407646179	
39	91.35100793838501	ITI	0		76	AV	32.0				98.51937508583069	1.2644901275634766
39	92.61549806594849	stim	1		40	AV	32.0				99.78386521339417	0.6660318374633789
39	93.28152990341187	response_window	2		74	AV	32.0				100.44989705085754	1.2351429462432861
39	94.4825119972229	response	2	A		AV	32.0	a	1.0	1.2009820938110352	101.65087914466858	
40	94.51667284965515	ITI	0		72	AV	2.0				101.68503999710083	1.1973230838775635
40	95.71399593353271	stim	1		10	AV	2.0				102.8823630809784	0.16686010360717773
40	95.88085603713989	response_window	2		51	AV	2.0				103.04922318458557	0.8521418571472168
40	96.69862198829651	response	2	A		AV	2.0	a	1.0	0.8177659511566162	103.86698913574219	
41	96.73299789428711	ITI	0		66	VA	16.0				103.90136504173279	1.0970470905303955
41	97.8300449848175	stim	1		24	VA	16.0				104.99841213226318	0.3997349739074707
41	98.22977995872498	response_window	2		57	VA	16.0				105.39814710617065	0.9520080089569092
41	99.14759588241577	response	2	V		VA	16.0	l	1.0	0.9178159236907959	106.31596302986145	
42	99.18178796768188	ITI	0		54	VA	32.0				106.35015511512756	0.8976149559020996
42	100.07940292358398	stim	1		40	VA	32.0				107.24777007102966	0.6662311553955078
42	100.74563407897949	response_window	2		40	VA	32.0				107.91400122642517	0.6681368350982666
42	101.38009285926819	response	2	V		VA	32.0	l	1.0	0.6344587802886963	108.54846000671387	
43	101.41377091407776	ITI	0		72	AV	64.0				108.58213806152344	1.198228120803833
43	102.61199903488159	stim	1		72	AV	64.0				109.78036618232727	1.1994309425354004
43	103.81142997741699	response_window	2		16	AV	64.0				110.97979712486267	0.2687089443206787
43	104.04600286483765	response	2	A		AV	64.0	a	1.0	0.2345728874206543	111.21437001228333	
44	104.08013892173767	ITI	0		56	VA	0.0				111.24850606918335	0.9307539463043213
44	105.01089286804199	stim	1		8	VA	0.0				112.17926001548767	0.13354206085205078
44	105.14443492889404	response_window	2		91	VA	0.0				112.31280207633972	1.5164480209350586
44	106.6284589767456	response	2	A		VA	0.0	a	0.0	1.4840240478515625	113.79682612419128	
45	106.6608829498291	ITI	0		65	VA	2.0				113.82925009727478	1.0826139450073242
45	107.74349689483643	stim	1		10	VA	2.0				114.9118640422821	0.16642498970031738
45	107.90992188453674	response_window	2		41	VA	2.0				115.07828903198242	0.6829311847686768
45	108.56129503250122	response	2	V		VA	2.0	l	1.0	0.6513731479644775	115.7296621799469	
46	108.59285306930542	ITI	0		65	VA	64.0				115.7612202167511	1.0833230018615723
46	109.67617607116699	stim	1		72	VA	64.0				116.84454321861267	1.199488878250122
46	110.87566494941711	response_window	2		25	VA	64.0				118.0440320968628	0.4184601306915283
46	111.26025891304016	response	2	V		VA	64.0	l	1.0	0.3845939636230469	118.42862606048584	
47	111.29412508010864	ITI	0		78	AV	2.0				118.46249222755432	1.297652006149292
47	112.59177708625793	stim	1		10	AV	2.0				119.76014423370361	0.1666247844696045
47	112.75840187072754	response_window	2		52	AV	2.0				119.92676901817322	0.8680100440979004
47	113.59275603294373	response	2	A		AV	2.0	a	1.0	0.8343541622161865	120.7611231803894	
48	113.62641191482544	ITI	0		69	VA	32.0				120.79477906227112	1.1508619785308838
48	114.77727389335632	stim	1		40	VA	32.0				121.945641040802	0.6633720397949219
48	115.44064593315125	response_window	2		77	VA	32.0				122.60901308059692	1.2846460342407227
48	116.69171595573425	response	2	V		VA	32.0	l	1.0	1.2510700225830078	123.86008310317993	
49	116.72529196739197	ITI	0		78	VA	8.0				123.89365911483765	1.2978909015655518
49	118.02318286895752	stim	1		16	VA	8.0				125.1915500164032	0.2665212154388428
49	118.28970408439636	response_window	2		59	VA	8.0				125.45807123184204	0.9842128753662109
49	119.24083089828491	response	2	V		VA	8.0	l	1.0	0.9511268138885498	126.40919804573059	
50	119.27391695976257	ITI	0		61	VA	16.0				126.44228410720825	1.015197992324829
50	120.2891149520874	stim	1		24	VA	16.0				127.45748209953308	0.4000430107116699
50	120.68915796279907	response_window	2		38	VA	16.0				127.85752511024475	0.6349489688873291
50	121.29024600982666	response	2	V		VA	16.0	l	1.0	0.6010880470275879	128.45861315727234	
51	121.3241069316864	ITI	0		66	AV	32.0				128.49247407913208	1.0975921154022217
51	122.42169904708862	stim	1		40	AV	32.0				129.5900661945343	0.6666228771209717
51	123.0883219242096	response_window	2		15	AV	32.0				130.25668907165527	0.2522280216217041
51	123.30609107017517	response	2	A		AV	32.0	a	1.0	0.21776914596557617	130.47445821762085	
52	123.3405499458313	ITI	0		72	AV	4.0				130.50891709327698	1.197303056716919
52	124.53785300254822	stim	1		12	AV	4.0				131.7062201499939	0.19985699653625488
52	124.73770999908447	response_window	2		52	AV	4.0				131.90607714653015	0.8686869144439697
52	125.5720899105072	response	2	A		AV	4.0	a	1.0	0.8343799114227295	132.74045705795288	
53	125.60639691352844	ITI	0		57	VA	8.0				132.77476406097412	0.9471390247344971
53	126.55353593826294	stim	1		16	VA	8.0				133.72190308570862	0.26688408851623535
53	126.82042002677917	response_window	2		57	VA	8.0				133.98878717422485	0.9519040584564209
53	127.73809003829956	response	2	V		VA	8.0	l	1.0	0.9176700115203857	134.90645718574524	
54	127.7723240852356	ITI	0		60	VA	64.0				134.94069123268127	0.9973437786102295
54	128.76966786384583	stim	1		72	VA	64.0				135.9380350112915	1.199472188949585
54	129.9691400527954	response_window	2		65	VA	64.0				137.1375072002411	1.0851550102233887
54	131.02019000053406	response	2	V		VA	64.0	l	1.0	1.0510499477386475	138.18855714797974	
55	131.0542950630188	ITI	0		65	AV	16.0				138.22266221046448	1.0810108184814453
55	132.13530588150024	stim	1		24	AV	16.0				139.30367302894592	0.3997640609741211
55	132.53506994247437	response_window	2		33	AV	16.0				139.70343708992004	0.5518710613250732
55	133.05277585983276	response	2	A		AV	16.0	a	1.0	0.5177059173583984	140.22114300727844	
56	133.08694100379944	ITI	0		68	AV	2.0				140.25530815124512	1.1309258937835693
56	134.217866897583	stim	1		10	AV	2.0				141.3862340450287	0.16651511192321777
56	134.38438200950623	response_window	2		60	AV	2.0				141.5527491569519	1.0018410682678223
56	135.35201907157898	response	2	V		AV	2.0	l	0.0	0.9676370620727539	142.52038621902466	
57	135.38622307777405	ITI	0		58	VA	16.0				142.55459022521973	0.9642739295959473
57	136.35049700737	stim	1		24	VA	16.0				143.51886415481567	0.3995320796966553
57	136.75002908706665	response_window	2		33	VA	16.0				143.91839623451233	0.5524909496307373
57	137.26830291748047	response	2	V		VA	16.0	l	1.0	0.5182738304138184	144.43667006492615	
58	137.3025200366974	ITI	0		62	AV	32.0				144.47088718414307	1.0307338237762451
58	138.33325386047363	stim	1		40	AV	32.0				145.5016210079193	0.666405200958252
58	138.99965906143188	response_window	2		40	AV	32.0				146.16802620887756	0.6683158874511719
58	139.63411903381348	response	2	A		AV	32.0	a	1.0	0.6344599723815918	146.80248618125916	
59	139.66797494888306	ITI	0		75	AV	16.0				146.83634209632874	1.2475879192352295
59	140.9155628681183	stim	1		24	AV	16.0				148.08393001556396	0.39980506896972656
59	141.315367937088	response_window	2		63	AV	16.0				148.4837350845337	1.0515539646148682
59	142.3331298828125	response	2	A		AV	16.0	a	1.0	1.0177619457244873	149.50149703025818	
60	142.36692190170288	ITI	0		72	VA	32.0				149.53528904914856	1.1977481842041016
60	143.56467008590698	stim	1		40	VA	32.0				150.73303723335266	0.6663548946380615
60	144.23102498054504	response_window	2		28	VA	32.0				151.39939212799072	0.46880006790161133
60	144.66574001312256	response	2	V		VA	32.0	l	1.0	0.43471503257751465	151.83410716056824	
61	144.69982504844666	ITI	0		69	VA	16.0				151.86819219589233	1.1473770141601562
61	145.8472020626068	stim	1		24	VA	16.0				153.0155692100525	0.39966392517089844
61	146.2468659877777	response_window	2		20	VA	16.0				153.4152331352234	0.3330390453338623
61	146.54804587364197	response	2	V		VA	16.0	l	1.0	0.3011798858642578	153.71641302108765	
62	146.57990503311157	ITI	0		69	VA	32.0				153.74827218055725	1.1499898433685303
62	147.7298948764801	stim	1		40	VA	32.0				154.89826202392578	0.6663901805877686
62	148.09775686264038	response	1			VA	32.0	l			155.26612401008606	
62	148.39628505706787	response_window	2		26	VA	32.0				155.56465220451355	0.4329237937927246
62	148.79714703559875	response	2	V		VA	32.0	l	1.0	0.4008619785308838	155.96551418304443	
63	148.8292088508606	ITI	0		58	VA	8.0				155.99757599830627	0.9666051864624023
63	149.795814037323	stim	1		16	VA	8.0				156.96418118476868	0.26647281646728516
63	150.06228685379028	response_window	2		81	VA	8.0				157.23065400123596	1.3519861698150635
63	151.38006806373596	response	2	A		VA	8.0	a	0.0	1.3177812099456787	158.54843521118164	
64	151.41427302360535	ITI	0		63	AV	2.0				158.58264017105103	1.0472650527954102
64	152.46153807640076	stim	1		10	AV	2.0				159.62990522384644	0.16667580604553223
64	152.6282138824463	response_window	2		51	AV	2.0				159.79658102989197	0.8515760898590088
64	153.44615197181702	response	2	V		AV	2.0	l	0.0	0.8179380893707275	160.6145191192627	
65	153.4797899723053	ITI	0		76	AV	64.0				160.64815711975098	1.264357089996338
65	154.74414706230164	stim	1		72	AV	64.0				161.91251420974731	1.199620008468628
65	155.94376707077026	response_window	2		31	AV	64.0				163.11213421821594	0.5187578201293945
65	156.4281759262085	response	2	A		AV	64.0	a	1.0	0.4844088554382324	163.59654307365417	
66	156.46252489089966	ITI	0		65	VA	0.0				163.63089203834534	1.0807080268859863
66	157.54323291778564	stim	1		8	VA	0.0				164.71160006523132	0.13314414024353027
66	157.67637705802917	response_window	2		43	VA	0.0				164.84474420547485	0.7192809581756592
66	158.3608319759369	response	2	A		VA	0.0	a	0.0	0.6844549179077148	165.52919912338257	
67	158.39565801620483	ITI	0		60	AV	32.0				165.5640251636505	0.9969849586486816
67	159.39264297485352	stim	1		40	AV	32.0				166.5610101222992	0.6664490699768066
67	160.05909204483032	response_window	2		17	AV	32.0				167.227459192276	0.28507089614868164
67	160.31035995483398	response	2	V		AV	32.0	l	0.0	0.2512679100036621	167.47872710227966	
68	160.344162940979	ITI	0		71	AV	16.0				167.51253008842468	1.1810929775238037
68	161.5252559185028	stim	1		24	AV	16.0				168.6936230659485	0.39986705780029297
68	161.9251229763031	response_window	2		55	AV	16.0				169.09349012374878	0.9184730052947998
68	162.8097128868103	response	2	A		AV	16.0	a	1.0	0.8845899105072021	169.97808003425598	
69	162.8435959815979	ITI	0		72	VA	64.0				170.01196312904358	1.1973519325256348
69	164.04094791412354	stim	1		72	VA	64.0				171.2093150615692	1.1997239589691162
69	165.24067187309265	response_window	2		16	VA	64.0				172.40903902053833	0.2682042121887207
69	165.47530698776245	response	2	V		VA	64.0	l	1.0	0.2346351146697998	172.64367413520813	
70	165.50887608528137	ITI	0		62	VA	16.0				172.67724323272705	1.0314397811889648
70	166.54031586647034	stim	1		24	VA	16.0				173.70868301391602	0.3997330665588379
70	166.94004893302917	response_window	2		42	VA	16.0				174.10841608047485	0.7007501125335693
70	167.60771107673645	response	2	A		VA	16.0	a	0.0	0.6676621437072754	174.77607822418213	
71	167.64079904556274	ITI	0		73	AV	32.0				174.80916619300842	1.2151589393615723
71	168.85595798492432	stim	1		40	AV	32.0				176.02432513237	0.6664860248565674
71	169.52244400978088	response_window	2		66	AV	32.0				176.69081115722656	1.1015980243682861
71	170.59029006958008	response	2	A		AV	32.0	a	1.0	1.0678460597991943	177.75865721702576	
72	170.62404203414917	ITI	0		76	AV	2.0				177.79240918159485	1.264369010925293
72	171.88841104507446	stim	1		10	AV	2.0				179.05677819252014	0.16661882400512695
72	172.0550298690796	response_window	2		110	AV	2.0				179.22339701652527	1.8344390392303467
72	173.8556489944458	response	2	A		AV	2.0	a	1.0	1.800619125366211	181.02401614189148	
73	173.88946890830994	ITI	0		59	VA	64.0				181.05783605575562	0.9811811447143555
73	174.8706500530243	stim	1		72	VA	64.0				182.03901720046997	1.1997089385986328
73	176.07035899162292	response_window	2		18	VA	64.0				183.2387261390686	0.30176401138305664
73	176.33789491653442	response	2	V		VA	64.0	l	1.0	0.267535924911499	183.5062620639801	
74	176.37212300300598	ITI	0		72	VA	2.0				183.54049015045166	1.1975438594818115
74	177.5696668624878	stim	1		10	VA	2.0				184.73803400993347	0.1667931079864502
74	177.73645997047424	response_window	2		58	VA	2.0				184.90482711791992	0.9684910774230957
74	178.67084193229675	response	2	V		VA	2.0	l	1.0	0.9343819618225098	185.83920907974243	
75	178.70495104789734	ITI	0		60	VA	32.0				185.87331819534302	0.9972870349884033
75	179.70223808288574	stim	1		40	VA	32.0				186.87060523033142	0.6665639877319336
75	180.36880207061768	response_window	2		50	VA	32.0				187.53716921806335	0.8353898525238037
75	181.17001390457153	response	2	V		VA	32.0	l	1.0	0.8012118339538574	188.3383810520172	
76	181.20419192314148	ITI	0		78	VA	2.0				188.37255907058716	1.297274112701416
76	182.5014660358429	stim	1		10	VA	2.0				189.66983318328857	0.16671991348266602
76	182.66818594932556	response_window	2		43	VA	2.0				189.83655309677124	0.718425989151001
76	183.35263991355896	response	2	A		VA	2.0	a	0.0	0.6844539642333984	190.52100706100464	
77	183.38661193847656	ITI	0		68	AV	64.0				190.55497908592224	1.130903959274292
77	184.51751589775085	stim	1		72	AV	64.0				191.68588304519653	1.1996371746063232
77	185.71715307235718	response_window	2		47	AV	64.0				192.88552021980286	0.7856857776641846
77	186.46824193000793	response	2	A		AV	64.0	a	1.0	0.7510888576507568	193.6366090774536	
78	186.50283885002136	ITI	0		63	AV	16.0				193.67120599746704	1.0470712184906006
78	187.54991006851196	stim	1		24	AV	16.0				194.71827721595764	0.39971399307250977
78	187.94962406158447	response_window	2		78	AV	16.0				195.11799120903015	1.3017640113830566
78	189.21719789505005	response	2	A		AV	16.0	a	1.0	1.2675738334655762	196.38556504249573	
79	189.25138807296753	ITI	0		69	VA	64.0				196.4197552204132	1.1472618579864502
79	190.39864993095398	stim	1		72	VA	64.0				197.56701707839966	1.1998181343078613
79	191.59846806526184	response_window	2		11	VA	64.0				198.76683521270752	0.18542194366455078
79	191.74946403503418	response	2	V		VA	64.0	l	1.0	0.15099596977233887	198.91783118247986	
80	191.7838900089264	ITI	0		72	AV	4.0				198.95225715637207	1.197402000427246
80	192.98129200935364	stim	1		12	AV	4.0				200.14965915679932	0.19997501373291016
80	193.18126702308655	response_window	2		51	AV	4.0				200.34963417053223	0.8520779609680176
80	193.99906396865845	response	2	V		AV	4.0	l	0.0	0.8177969455718994	201.16743111610413	
81	194.03334498405457	ITI	0		72	AV	4.0				201.20171213150024	1.1972100734710693
81	195.23055505752563	stim	1		12	AV	4.0				202.3989222049713	0.19982385635375977
81	195.4303789138794	response_window	2		35	AV	4.0				202.59874606132507	0.585806131362915
81	195.98158288002014	response	2	A		AV	4.0	a	1.0	0.5512039661407471	203.14995002746582	
82	196.0161850452423	ITI	0		72	AV	4.0				203.184552192688	1.1971638202667236
82	197.21334886550903	stim	1		12	AV	4.0				204.3817160129547	0.1998891830444336
82	197.41323804855347	response_window	2		40	AV	4.0				204.58160519599915	0.6687049865722656
82	198.04696202278137	response	2	V		AV	4.0	l	0.0	0.6337239742279053	205.21532917022705	
83	198.08194303512573	ITI	0		69	AV	8.0				205.2503101825714	1.1472408771514893
83	199.22918391227722	stim	1		16	AV	8.0				206.3975510597229	0.266556978225708
83	199.49574089050293	response_window	2		41	AV	8.0				206.6641080379486	0.6853640079498291
83	200.14685988426208	response	2	A		AV	8.0	a	1.0	0.6511189937591553	207.31522703170776	
84	200.18110489845276	ITI	0		60	AV	4.0				207.34947204589844	0.997312068939209
84	201.17841696739197	stim	1		12	AV	4.0				208.34678411483765	0.19986605644226074
84	201.37828302383423	response_window	2		48	AV	4.0				208.5466501712799	0.802016019821167
84	202.14622402191162	response	2	A		AV	4.0	a	1.0	0.7679409980773926	209.3145911693573	
85	202.1802990436554	ITI	0		78	AV	4.0				209.34866619110107	1.297386884689331
85	203.47768592834473	stim	1		12	AV	4.0				210.6460530757904	0.20012402534484863
85	203.67780995368958	response_window	2		56	AV	4.0				210.84617710113525	0.9344758987426758
85	204.57871890068054	response	2	A		AV	4.0	a	1.0	0.9009089469909668	211.74708604812622	
86	204.61228585243225	ITI	0		78	AV	16.0				211.78065299987793	1.297950029373169
86	205.91023588180542	stim	1		24	AV	16.0				213.0786030292511	0.3997781276702881
86	206.3100140094757	response_window	2		57	AV	16.0				213.4783811569214	0.9522979259490967
86	207.22755408287048	response	2	V		AV	16.0	l	0.0	0.9175400733947754	214.39592123031616	
87	207.2623119354248	ITI	0		74	AV	4.0				214.43067908287048	1.2305920124053955
87	207.81089687347412	response	0			AV	4.0	a			214.9792640209198	
87	208.4929039478302	stim	1		12	AV	4.0				215.66127109527588	0.19962501525878906
87	208.692528963089	response_window	2		81	AV	4.0				215.86089611053467	1.3518099784851074
87	210.01005506515503	response	2	A		AV	4.0	a	1.0	1.31752610206604	217.1784222126007	
88	210.0443389415741	ITI	0		61	VA	32.0				217.21270608901978	1.0139720439910889
88	211.05831098556519	stim	1		40	VA	32.0				218.22667813301086	0.6666109561920166
88	211.7249219417572	response_window	2		61	VA	32.0				218.89328908920288	1.0187289714813232
88	212.7092878818512	response	2	V		VA	32.0	l	1.0	0.9843659400939941	219.87765502929688	
89	212.74365091323853	ITI	0		60	VA	32.0				219.9120180606842	0.9971840381622314
89	213.74083495140076	stim	1		40	VA	32.0				220.90920209884644	0.6665740013122559
89	214.407408952713	response_window	2		26	VA	32.0				221.5757761001587	0.4353370666503906
89	214.8084259033203	response	2	V		VA	32.0	l	1.0	0.4010169506072998	221.976793050766	
90	214.8427460193634	ITI	0		75	VA	0.0				222.01111316680908	1.2473468780517578
90	216.09009289741516	stim	1		8	VA	0.0				223.25846004486084	0.13347101211547852
90	216.22356390953064	response_window	2		57	VA	0.0				223.39193105697632	0.9514789581298828
90	217.1410789489746	response	2	V		VA	0.0	l	1.0	0.9175150394439697	224.3094460964203	
91	217.17504286766052	ITI	0		63	VA	4.0				224.3434100151062	1.0478219985961914
91	218.2228648662567	stim	1		12	VA	4.0				225.3912320137024	0.19978904724121094
91	218.42265391349792	response_window	2		40	VA	4.0				225.5910210609436	0.6688089370727539
91	219.0572328567505	response	2	A		VA	4.0	a	0.0	0.6345789432525635	226.22560000419617	
92	219.09146285057068	ITI	0		67	AV	16.0				226.25982999801636	1.1140251159667969
92	220.20548796653748	stim	1		24	AV	16.0				227.37385511398315	0.39983105659484863
92	220.60531902313232	response_window	2		29	AV	16.0				227.773686170578	0.48566102981567383
92	221.05662202835083	response	2	V		AV	16.0	l	0.0	0.45130300521850586	228.2249891757965	
93	221.090980052948	ITI	0		66	AV	64.0				228.25934720039368	1.0972399711608887
93	222.1882200241089	stim	1		72	AV	64.0				229.35658717155457	1.1995840072631836
93	223.38780403137207	response_window	2		66	AV	64.0				230.55617117881775	1.1009228229522705
93	224.4552550315857	response	2	A		AV	64.0	a	1.0	1.067451000213623	231.62362217903137	
94	224.48872685432434	ITI	0		77	AV	8.0				231.65709400177002	1.281520128250122
94	225.77024698257446	stim	1		16	AV	8.0				232.93861413002014	0.2666139602661133
94	226.03686094284058	response_window	2		111	AV	8.0				233.20522809028625	1.8514471054077148
94	227.85435104370117	response	2	V		AV	8.0	l	0.0	1.8174901008605957	235.02271819114685	
95	227.8883080482483	ITI	0		67	VA	64.0				235.05667519569397	1.114166021347046
95	229.00247406959534	stim	1		72	VA	64.0				236.17084121704102	1.1995398998260498
95	230.2020139694214	response_window	2		22	VA	64.0				237.37038111686707	0.3686521053314209
95	230.53674387931824	response	2	V		VA	64.0	l	1.0	0.3347299098968506	237.70511102676392	
96	230.5706660747528	ITI	0		76	VA	4.0				237.7390332221985	1.2640459537506104
96	231.83471202850342	stim	1		12	VA	4.0				239.0030791759491	0.20009303092956543
96	232.03480505943298	response_window	2		89	VA	4.0				239.20317220687866	1.4847979545593262
96	233.48548197746277	response	2	V		VA	4.0	l	1.0	1.4506769180297852	240.65384912490845	
97	233.5196030139923	ITI	0		67	AV	8.0				240.687970161438	1.1143178939819336
97	234.63392090797424	stim	1		16	AV	8.0				241.80228805541992	0.26668810844421387
97	234.90060901641846	response_window	2		49	AV	8.0				242.06897616386414	0.81927490234375
97	235.6849880218506	response	2	A		AV	8.0	a	1.0	0.7843790054321289	242.85335516929626	
98	235.7198839187622	ITI	0		55	AV	8.0				242.88825106620789	0.9134120941162109
98	236.63329601287842	stim	1		16	AV	8.0				243.8016631603241	0.26645994186401367
98	236.89975595474243	response_window	2		45	AV	8.0				244.0681231021881	0.7516450881958008
98	237.61787295341492	response	2	V		AV	8.0	l	0.0	0.7181169986724854	244.7862401008606	
99	237.65140104293823	ITI	0		57	VA	8.0				244.8197681903839	0.9477968215942383
99	238.59919786453247	stim	1		16	VA	8.0				245.76756501197815	0.2664151191711426
99	238.8656129837036	response_window	2		46	VA	8.0				246.0339801311493	0.7688570022583008
99	239.60036993026733	response	2	A		VA	8.0	a	0.0	0.7347569465637207	246.768737077713	
100	239.6344699859619	ITI	0		66	AV	64.0				246.8028371334076	1.0974490642547607
100	240.73191905021667	stim	1		72	AV	64.0				247.90028619766235	1.199549913406372
100	241.93146896362305	response_window	2		97	AV	64.0				249.09983611106873	1.6180059909820557
100	243.5154800415039	response	2	A		AV	64.0	a	1.0	1.5840110778808594	250.68384718894958	
101	243.5494749546051	ITI	0		71	VA	0.0				250.71784210205078	1.1808960437774658
101	244.73037099838257	stim	1		8	VA	0.0				251.89873814582825	0.13338804244995117
101	244.86375904083252	response_window	2		52	VA	0.0				252.0321261882782	0.8682308197021484
101	245.69854998588562	response	2	V		VA	0.0	l	1.0	0.8347909450531006	252.8669171333313	
102	245.73198986053467	ITI	0		73	AV	32.0				252.90035700798035	1.2142961025238037
102	246.94628596305847	stim	1		40	AV	32.0				254.11465311050415	0.6669690608978271
102	247.6132550239563	response_window	2		52	AV	32.0				254.78162217140198	0.8679900169372559
102	248.44684505462646	response	2	A		AV	32.0	a	1.0	0.833590030670166	255.61521220207214	
103	248.48124504089355	ITI	0		58	AV	8.0				255.64961218833923	0.9643080234527588
103	249.4455530643463	stim	1		16	AV	8.0				256.613920211792	0.26659679412841797
103	249.71214985847473	response_window	2		70	AV	8.0				256.8805170059204	1.1679370403289795
103	250.8463099002838	response	2	V		AV	8.0	l	0.0	1.134160041809082	258.0146770477295	
104	250.8800868988037	ITI	0		67	AV	32.0				258.0484540462494	1.1146471500396729
104	251.99473404884338	stim	1		40	AV	32.0				259.16310119628906	0.6665298938751221
104	252.6612639427185	response_window	2		49	AV	32.0				259.8296310901642	0.8187570571899414
104	253.44547295570374	response	2	A		AV	32.0	a	1.0	0.7842090129852295	260.6138401031494	
105	253.48002099990845	ITI	0		54	AV	4.0				260.6483881473541	0.8971569538116455
105	254.3771779537201	stim	1		12	AV	4.0				261.54554510116577	0.20006299018859863
105	254.5772409439087	response_window	2		50	AV	4.0				261.74560809135437	0.8353240489959717
105	255.37810802459717	response	2	A		AV	4.0	a	1.0	0.8008670806884766	262.54647517204285	
106	255.41256499290466	ITI	0		72	VA	8.0				262.58093214035034	1.1973419189453125
106	256.60990691185	stim	1		16	VA	8.0				263.77827405929565	0.2665519714355469
106	256.8764588832855	response_window	2		45	VA	8.0				264.0448260307312	0.7519099712371826
106	257.59427785873413	response	2	V		VA	8.0	l	1.0	0.7178189754486084	264.7626450061798	
107	257.6283688545227	ITI	0		78	AV	2.0				264.7967360019684	1.2969200611114502
107	258.92528891563416	stim	1		10	AV	2.0				266.09365606307983	0.16711115837097168
107	259.0924000740051	response_window	2		56	AV	2.0				266.2607672214508	0.9352447986602783
107	259.9932949542999	response	2	A		AV	2.0	a	1.0	0.9008948802947998	267.1616621017456	
108	260.0276448726654	ITI	0		70	AV	64.0				267.1960120201111	1.1634521484375
108	261.1910970211029	stim	1		72	AV	64.0				268.3594641685486	1.1996989250183105
108	262.3907959461212	response_window	2		18	AV	64.0				269.5591630935669	0.30259203910827637
108	262.6591398715973	response	2	V		AV	64.0	l	0.0	0.2683439254760742	269.82750701904297	
109	262.6933879852295	ITI	0		77	AV	16.0				269.86175513267517	1.280493974685669
109	263.97388195991516	stim	1		24	AV	16.0				271.14224910736084	0.4000740051269531
109	264.3739559650421	response_window	2		43	AV	16.0				271.5423231124878	0.7195539474487305
109	265.05822706222534	response	2	V		AV	16.0	l	0.0	0.6842710971832275	272.226594209671	
110	265.09350991249084	ITI	0		62	AV	32.0				272.2618770599365	1.0296659469604492
110	266.1231758594513	stim	1		40	AV	32.0				273.291543006897	0.6665260791778564
110	266.78970193862915	response_window	2		33	AV	32.0				273.95806908607483	0.552070140838623
110	267.30755591392517	response	2	A		AV	32.0	a	1.0	0.5178539752960205	274.47592306137085	
111	267.3417720794678	ITI	0		56	VA	16.0				274.51013922691345	0.9308598041534424
111	268.2726318836212	stim	1		24	VA	16.0				275.4409990310669	0.39989399909973145
111	268.67252588272095	response_window	2		33	VA	16.0				275.8408930301666	0.5518131256103516
111	269.1903738975525	response	2	V		VA	16.0	l	1.0	0.517848014831543	276.35874104499817	
112	269.2243390083313	ITI	0		64	VA	64.0				276.392706155777	1.064241886138916
112	270.2885808944702	stim	1		72	VA	64.0				277.4569480419159	1.1994431018829346
112	271.48802399635315	response_window	2		65	VA	64.0				278.6563911437988	1.0852019786834717
112	272.53874492645264	response	2	V		VA	64.0	l	1.0	1.0507209300994873	279.7071120738983	
113	272.5732259750366	ITI	0		72	VA	64.0				279.7415931224823	1.1973259449005127
113	273.77055191993713	stim	1		72	VA	64.0				280.9389190673828	1.1997370719909668
113	274.9702889919281	response_window	2		19	VA	64.0				282.1386561393738	0.3186500072479248
113	275.2549879550934	response	2	V		VA	64.0	l	1.0	0.2846989631652832	282.42335510253906	
114	275.288938999176	ITI	0		73	VA	32.0				282.4573061466217	1.2141690254211426
114	276.50310802459717	stim	1		40	VA	32.0				283.67147517204285	0.666511058807373
114	277.16961908340454	response_window	2		63	VA	32.0				284.3379862308502	1.0513508319854736
114	278.1870059967041	response	2	V		VA	32.0	l	1.0	1.0173869132995605	285.3553731441498	
115	278.22096991539	ITI	0		67	VA	8.0				285.3893370628357	1.1145939826965332
115	279.33556389808655	stim	1		16	VA	8.0				286.5039310455322	0.26644110679626465
115	279.6020050048828	response_window	2		60	VA	8.0				286.7703721523285	1.0023949146270752
115	280.5697228908539	response	2	V		VA	8.0	l	1.0	0.9677178859710693	287.73809003829956	
116	280.6043999195099	ITI	0		70	AV	8.0				287.77276706695557	1.1636631488800049
116	281.7680630683899	stim	1		16	AV	8.0				288.93643021583557	0.266481876373291
116	282.0345449447632	response_window	2		53	AV	8.0				289.20291209220886	0.8853991031646729
116	282.8853249549866	response	2	A		AV	8.0	a	1.0	0.8507800102233887	290.05369210243225	
117	282.91994404792786	ITI	0		61	AV	8.0				290.08831119537354	1.013942003250122
117	283.933886051178	stim	1		16	AV	8.0				291.10225319862366	0.26651787757873535
117	284.2004039287567	response_window	2		55	AV	8.0				291.3687710762024	0.9191560745239258
117	285.0846929550171	response	2	A		AV	8.0	a	1.0	0.884289026260376	292.25306010246277	
118	285.11956000328064	ITI	0		67	AV	64.0				292.2879271507263	1.1134459972381592
118	286.2330060005188	stim	1		72	AV	64.0				293.4013731479645	1.1998238563537598
118	287.43282985687256	response_window	2		63	AV	64.0				294.60119700431824	1.051819086074829
118	288.45007586479187	response	2	A		AV	64.0	a	1.0	1.0172460079193115	295.61844301223755	
119	288.4846489429474	ITI	0		56	VA	8.0				295.65301609039307	0.9308409690856934
119	289.4154899120331	stim	1		16	VA	8.0				296.58385705947876	0.2664041519165039
119	289.6818940639496	response_window	2		53	VA	8.0				296.85026121139526	0.8846368789672852
119	290.53297305107117	response	2	V		VA	8.0	l	1.0	0.851078987121582	297.70134019851685	
120	290.56653094291687	ITI	0		66	VA	8.0				297.73489809036255	1.0981149673461914
120	291.66464591026306	stim	1		16	VA	8.0				298.83301305770874	0.2666339874267578
120	291.9312798976898	response_window	2		40	VA	8.0				299.0996470451355	0.6686210632324219
120	292.56536889076233	response	2	V		VA	8.0	l	1.0	0.6340889930725098	299.733736038208	
121	292.59990096092224	ITI	0		73	VA	2.0				299.7682681083679	1.2136468887329102
121	293.81354784965515	stim	1		10	VA	2.0				300.98191499710083	0.16662311553955078
121	293.9801709651947	response_window	2		31	VA	2.0				301.1485381126404	0.5162820816040039
121	294.4649670124054	response	2	V		VA	2.0	l	1.0	0.48479604721069336	301.6333341598511	
122	294.4964530467987	ITI	0		73	AV	2.0				301.6648201942444	1.2168300151824951
122	295.7132830619812	stim	1		10	AV	2.0				302.8816502094269	0.1665968894958496
122	295.87987995147705	response_window	2		37	AV	2.0				303.04824709892273	0.618340015411377
122	296.46434688568115	response	2	V		AV	2.0	l	0.0	0.5844669342041016	303.63271403312683	
123	296.4982199668884	ITI	0		72	VA	2.0				303.6665871143341	1.197638988494873
123	297.6958589553833	stim	1		10	VA	2.0				304.864226102829	0.166640043258667
123	297.86249899864197	response_window	2		59	VA	2.0				305.03086614608765	0.9851219654083252
123	298.8133099079132	response	2	A		VA	2.0	a	0.0	0.9508109092712402	305.9816770553589	
124	298.8476209640503	ITI	0		61	AV	16.0				306.015988111496	1.0142030715942383
124	299.86182403564453	stim	1		24	AV	16.0				307.0301911830902	0.39992403984069824
124	300.26174807548523	response_window	2		73	AV	16.0				307.4301152229309	1.218209981918335
124	301.44615387916565	response	2	A		AV	16.0	a	1.0	1.18440580368042	308.6145210266113	
125	301.47995805740356	ITI	0		76	VA	16.0				308.64832520484924	1.2642428874969482
125	302.7442009449005	stim	1		24	VA	16.0				309.9125680923462	0.3999450206756592
125	303.1441459655762	response_window	2		39	VA	16.0				310.31251311302185	0.6516330242156982
125	303.76202392578125	response	2	V		VA	16.0	l	1.0	0.6178779602050781	310.93039107322693	
126	303.79577898979187	ITI	0		55	VA	2.0				310.96414613723755	0.9144089221954346
126	304.7101879119873	stim	1		10	VA	2.0				311.878555059433	0.16650009155273438
126	304.87668800354004	response_window	2		64	VA	2.0				312.0450551509857	1.068708896636963
126	305.91092586517334	response	2	V		VA	2.0	l	1.0	1.0342378616333008	313.079293012619	
127	305.945396900177	ITI	0		69	VA	2.0				313.1137640476227	1.147381067276001
127	307.092777967453	stim	1		10	VA	2.0				314.2611451148987	0.16655206680297852
127	307.259330034256	response_window	2		32	VA	2.0				314.42769718170166	0.5354559421539307
127	307.7604880332947	response	2	V		VA	2.0	l	1.0	0.5011579990386963	314.92885518074036	
128	307.7947859764099	ITI	0		59	AV	2.0				314.9631531238556	0.9807698726654053
128	308.7755558490753	stim	1		10	AV	2.0				315.943922996521	0.16628313064575195
128	308.94183897972107	response_window	2		43	AV	2.0				316.11020612716675	0.7187108993530273
128	309.626748085022	response	2	A		AV	2.0	a	1.0	0.6849091053009033	316.79511523246765	
129	309.6605498790741	ITI	0		78	VA	0.0				316.8289170265198	1.297511100769043
129	310.95806097984314	stim	1		8	VA	0.0				318.1264281272888	0.13324499130249023
129	311.09130597114563	response_window	2		38	VA	0.0				318.2596731185913	0.6368739604949951
129	311.69235491752625	response	2	A		VA	0.0	a	0.0	0.6010489463806152	318.8607220649719	
130	311.7281799316406	ITI	0		70	AV	16.0				318.8965470790863	1.1626200675964355
130	312.89079999923706	stim	1		24	AV	16.0				320.05916714668274	0.3999478816986084
130	313.29074788093567	response_window	2		57	AV	16.0				320.45911502838135	0.9514601230621338
130	314.2083320617676	response	2	A		AV	16.0	a	1.0	0.9175841808319092	321.37669920921326	
131	314.2422080039978	ITI	0		68	AV	16.0				321.4105751514435	1.13087797164917
131	315.373085975647	stim	1		24	AV	16.0				322.54145312309265	0.4000589847564697
131	315.77314496040344	response_window	2		24	AV	16.0				322.9415121078491	0.400576114654541
131	316.1406948566437	response	2	A		AV	16.0	a	1.0	0.3675498962402344	323.30906200408936	
132	316.173721075058	ITI	0		59	VA	2.0				323.34208822250366	0.9820008277893066
132	317.1557219028473	stim	1		10	VA	2.0				324.32408905029297	0.1667649745941162
132	317.3224868774414	response_window	2		33	VA	2.0				324.4908540248871	0.5510921478271484
132	317.8402760028839	response	2	V		VA	2.0	l	1.0	0.5177891254425049	325.0086431503296	
133	317.87357902526855	ITI	0		62	VA	4.0				325.04194617271423	1.0317728519439697
133	318.9053518772125	stim	1		12	VA	4.0				326.0737190246582	0.20000410079956055
133	319.1053559780121	response_window	2		24	VA	4.0				326.27372312545776	0.39951205253601074
133	319.4731800556183	response	2	V		VA	4.0	l	1.0	0.36782407760620117	326.64154720306396	
134	319.5048680305481	ITI	0		74	AV	64.0				326.6732351779938	1.2330188751220703
134	320.73788690567017	stim	1		72	AV	64.0				327.90625405311584	1.199843168258667
134	321.93773007392883	response_window	2		15	AV	64.0				329.1060972213745	0.25225186347961426
134	322.1553409099579	response	2	A		AV	64.0	a	1.0	0.21761083602905273	329.32370805740356	
135	322.18998193740845	ITI	0		70	AV	16.0				329.3583490848541	1.164057970046997
135	323.35403990745544	stim	1		24	AV	16.0				330.5224070549011	0.3997461795806885
135	323.75378608703613	response_window	2		43	AV	16.0				330.9221532344818	0.7186868190765381
135	324.4383029937744	response	2	A		AV	16.0	a	1.0	0.6845169067382812	331.6066701412201	
136	324.47247290611267	ITI	0		77	VA	64.0				331.64084005355835	1.2804620265960693
136	325.75293493270874	stim	1		72	VA	64.0				332.9213020801544	1.1996159553527832
136	326.9525508880615	response_window	2		28	VA	64.0				334.1209180355072	0.46903300285339355
136	327.3870449066162	response	2	V		VA	64.0	l	1.0	0.4344940185546875	334.5554120540619	
137	327.4215838909149	ITI	0		61	AV	4.0				334.5899510383606	1.0139000415802002
137	328.4354839324951	stim	1		12	AV	4.0				335.6038510799408	0.20001697540283203
137	328.63550090789795	response_window	2		34	AV	4.0				335.8038680553436	0.5686321258544922
137	329.1700999736786	response	2	A		AV	4.0	a	1.0	0.5345990657806396	336.33846712112427	
138	329.20413303375244	ITI	0		59	AV	64.0				336.3725001811981	0.9809830188751221
138	330.18511605262756	stim	1		72	AV	64.0				337.35348320007324	1.1995270252227783
138	331.38464307785034	response_window	2		13	AV	64.0				338.553010225296	0.219620943069458
138	331.5693440437317	response	2	A		AV	64.0	a	1.0	0.18470096588134766	338.73771119117737	
139	331.6042640209198	ITI	0		55	AV	64.0				338.7726311683655	0.913193941116333
139	332.51745796203613	stim	1		72	AV	64.0				339.6858251094818	1.1995649337768555
139	333.717022895813	response_window	2		65	AV	64.0				340.88539004325867	1.0852160453796387
139	334.7680139541626	response	2	A		AV	64.0	a	1.0	1.0509910583496094	341.9363811016083	
140	334.8022389411926	ITI	0		73	AV	64.0				341.9706060886383	1.214087963104248
140	336.0163269042969	stim	1		72	AV	64.0				343.18469405174255	1.1994740962982178
140	337.2158010005951	response_window	2		64	AV	64.0				344.38416814804077	1.0686619281768799
140	338.25044798851013	response	2	A		AV	64.0	a	1.0	1.034646987915039	345.4188151359558	
141	338.284462928772	ITI	0		74	AV	8.0				345.45283007621765	1.2306129932403564
141	339.51507592201233	stim	1		16	AV	8.0				346.683443069458	0.2664210796356201
141	339.78149700164795	response_window	2		57	AV	8.0				346.9498641490936	0.9493138790130615
141	340.69881296157837	response	2	A		AV	8.0	a	1.0	0.9173159599304199	347.86718010902405	
142	340.730810880661	ITI	0		77	VA	0.0				347.8991780281067	1.2833251953125
142	342.0141360759735	stim	1		8	VA	0.0				349.1825032234192	0.1335279941558838
142	342.1476640701294	response_window	2		51	VA	0.0				349.3160312175751	0.8504378795623779
142	342.9654769897461	response	2	V		VA	0.0	l	1.0	0.8178129196166992	350.1338441371918	
143	342.9981019496918	ITI	0		57	AV	8.0				350.16646909713745	0.9487950801849365
143	343.9468970298767	stim	1		16	AV	8.0				351.1152641773224	0.26642298698425293
143	344.21332001686096	response_window	2		22	AV	8.0				351.38168716430664	0.3664078712463379
143	344.54803800582886	response	2	A		AV	8.0	a	1.0	0.3347179889678955	351.71640515327454	
144	344.5797278881073	ITI	0		60	AV	32.0				351.748095035553	0.9998650550842285
144	345.5795929431915	stim	1		40	AV	32.0				352.7479600906372	0.6663310527801514
144	346.2459239959717	response_window	2		37	AV	32.0				353.41429114341736	0.6184968948364258
144	346.8303949832916	response	2	A		AV	32.0	a	1.0	0.5844709873199463	353.9987621307373	
145	346.8644208908081	ITI	0		77	AV	64.0				354.0327880382538	1.281013011932373
145	348.1454339027405	stim	1		72	AV	64.0				355.31380105018616	1.1997401714324951
145	349.345174074173	response_window	2		16	AV	64.0				356.51354122161865	0.26894187927246094
145	349.5787949562073	response	2	A		AV	64.0	a	1.0	0.23362088203430176	356.74716210365295	
146	349.61411595344543	ITI	0		58	VA	32.0				356.7824831008911	0.9638690948486328
146	350.57798504829407	stim	1		40	VA	32.0				357.74635219573975	0.6664879322052002
146	351.24447298049927	response_window	2		24	VA	32.0				358.41284012794495	0.4017980098724365
146	351.6127359867096	response	2	V		VA	32.0	l	1.0	0.36826300621032715	358.7811031341553	
147	351.6462709903717	ITI	0		63	AV	4.0				358.8146381378174	1.0475308895111084
147	352.6938018798828	stim	1		12	AV	4.0				359.8621690273285	0.20008015632629395
147	352.8938820362091	response_window	2		52	AV	4.0				360.0622491836548	0.8686718940734863
147	353.7283868789673	response	2	V		AV	4.0	l	0.0	0.8345048427581787	360.89675402641296	
148	353.7625539302826	ITI	0		72	VA	4.0				360.93092107772827	1.1974830627441406
148	354.96003699302673	stim	1		12	VA	4.0				362.1284041404724	0.1995549201965332
148	355.15959191322327	response_window	2		48	VA	4.0				362.32795906066895	0.8023200035095215
148	355.9274709224701	response	2	V		VA	4.0	l	1.0	0.7678790092468262	363.09583806991577	
149	355.9619119167328	ITI	0		62	VA	8.0				363.13027906417847	1.0304839611053467
149	356.99239587783813	stim	1		16	VA	8.0				364.1607630252838	0.26653409004211426
149	357.25892996788025	response_window	2		28	VA	8.0				364.4272971153259	0.4687221050262451
149	357.69369292259216	response	2	V		VA	8.0	l	1.0	0.43476295471191406	364.86206007003784	
150	357.7276520729065	ITI	0		78	VA	8.0				364.8960192203522	1.2975008487701416
150	359.02515292167664	stim	1		16	VA	8.0				366.1935200691223	0.26663804054260254
150	359.29179096221924	response_window	2		29	VA	8.0				366.4601581096649	0.48537111282348633
150	359.742959022522	response	2	V		VA	8.0	l	1.0	0.4511680603027344	366.91132616996765	
151	359.7771620750427	ITI	0		68	AV	8.0				366.9455292224884	1.130685806274414
151	360.90784788131714	stim	1		16	AV	8.0				368.0762150287628	0.2664670944213867
151	361.1743149757385	response_window	2		26	AV	8.0				368.3426821231842	0.4330780506134033
151	361.5748438835144	response	2	A		AV	8.0	a	1.0	0.4005289077758789	368.7432110309601	
152	361.60739302635193	ITI	0		57	VA	16.0				368.7757601737976	0.9498920440673828
152	362.5572850704193	stim	1		24	VA	16.0				369.725652217865	0.3999488353729248
152	362.95723390579224	response_window	2		35	VA	16.0				370.1256010532379	0.5826301574707031
152	363.508260011673	response	2	V		VA	16.0	l	1.0	0.5510261058807373	370.67662715911865	
153	363.53986406326294	ITI	0		70	AV	64.0				370.7082312107086	1.1667888164520264
153	364.70665287971497	stim	1		72	AV	64.0				371.87502002716064	1.1996161937713623
153	365.9062690734863	response_window	2		24	AV	64.0				373.074636220932	0.40190887451171875
153	366.274090051651	response	2	A		AV	64.0	a	1.0	0.36782097816467285	373.4424571990967	
154	366.30817794799805	ITI	0		76	VA	2.0				373.4765450954437	1.2642459869384766
154	367.5724239349365	stim	1		10	VA	2.0				374.7407910823822	0.16624212265014648
154	367.73866605758667	response_window	2		40	VA	2.0				374.90703320503235	0.6693859100341797
154	368.37327098846436	response	2	V		VA	2.0	l	1.0	0.6346049308776855	375.54163813591003	
155	368.40805196762085	ITI	0		78	VA	0.0				375.5764191150665	1.2967710494995117
155	369.70482301712036	stim	1		8	VA	0.0				376.87319016456604	0.13324689865112305
155	369.8380699157715	response_window	2		28	VA	0.0				377.00643706321716	0.4682619571685791
155	370.27254700660706	response	2	A		VA	0.0	a	0.0	0.4344770908355713	377.44091415405273	
156	370.30633187294006	ITI	0		72	VA	8.0				377.47469902038574	1.1979970932006836
156	371.50432896614075	stim	1		16	VA	8.0				378.6726961135864	0.2664511203765869
156	371.77078008651733	response_window	2		28	VA	8.0				378.939147233963	0.46894097328186035
156	372.20543789863586	response	2	V		VA	8.0	l	1.0	0.4346578121185303	379.37380504608154	
157	372.2397210597992	ITI	0		69	AV	4.0				379.4080882072449	1.1473228931427002
157	373.3870439529419	stim	1		12	AV	4.0				380.5554111003876	0.19998407363891602
157	373.5870280265808	response_window	2		28	AV	4.0				380.7553951740265	0.4688079357147217
157	374.0215919017792	response	2	A		AV	4.0	a	1.0	0.43456387519836426	381.18995904922485	
158	374.05583596229553	ITI	0		63	VA	8.0				381.2242031097412	1.0471041202545166
158	375.10294008255005	stim	1		16	VA	8.0				382.2713072299957	0.2669398784637451
158	375.3698799610138	response_window	2		25	VA	8.0				382.5382471084595	0.41900205612182617
158	375.7541320323944	response	2	V		VA	8.0	l	1.0	0.38425207138061523	382.9224991798401	
159	375.7888820171356	ITI	0		73	VA	64.0				382.9572491645813	1.213042974472046
159	377.00192499160767	stim	1		72	VA	64.0				384.17029213905334	1.1999318599700928
159	378.20185685157776	response_window	2		23	VA	64.0				385.37022399902344	0.38561511039733887
159	378.5531280040741	response	2	V		VA	64.0	l	1.0	0.3512711524963379	385.7214951515198	
160	378.5874719619751	ITI	0		77	VA	4.0				385.7558391094208	1.2807209491729736
160	379.86819291114807	stim	1		12	VA	4.0				387.03656005859375	0.20003509521484375
160	380.0682280063629	response_window	2		56	VA	4.0				387.2365951538086	0.9346129894256592
160	380.9691970348358	response	2	V		VA	4.0	l	1.0	0.9009690284729004	388.1375641822815	
161	381.0028409957886	ITI	0		78	VA	4.0				388.17120814323425	1.2980129718780518
161	382.3008539676666	stim	1		12	VA	4.0				389.4692211151123	0.1999340057373047
161	382.50078797340393	response_window	2		35	VA	4.0				389.6691551208496	0.585629940032959
161	383.05171489715576	response	2	V		VA	4.0	l	1.0	0.550926923751831	390.22008204460144	
162	383.0864179134369	ITI	0		77	AV	32.0				390.25478506088257	1.2803070545196533
162	384.36672496795654	stim	1		40	AV	32.0				391.5350921154022	0.6663739681243896
162	385.03309893608093	response_window	2		12	AV	32.0				392.2014660835266	0.20207595825195312
162	385.201171875	response	2	A		AV	32.0	a	1.0	0.16807293891906738	392.3695390224457	
163	385.2351748943329	ITI	0		66	VA	4.0				392.40354204177856	1.0974740982055664
163	386.33264899253845	stim	1		12	VA	4.0				393.50101613998413	0.19987702369689941
163	386.53252601623535	response_window	2		61	VA	4.0				393.70089316368103	1.0189528465270996
163	387.5169270038605	response	2	V		VA	4.0	l	1.0	0.9844009876251221	394.68529415130615	
164	387.55147886276245	ITI	0		56	VA	64.0				394.71984601020813	0.9303371906280518
164	388.4818160533905	stim	1		72	VA	64.0				395.6501832008362	1.1996409893035889
164	389.6814570426941	response_window	2		66	VA	64.0				396.84982419013977	1.1018610000610352
164	390.74916887283325	response	2	V		VA	64.0	l	1.0	1.0677118301391602	397.91753602027893	
165	390.7833180427551	ITI	0		65	VA	4.0				397.9516851902008	1.0808930397033691
165	391.8642110824585	stim	1		12	VA	4.0				399.0325782299042	0.19993996620178223
165	392.0641510486603	response_window	2		37	VA	4.0				399.23251819610596	0.6186668872833252
165	392.6486029624939	response	2	A		VA	4.0	a	0.0	0.5844519138336182	399.8169701099396	
166	392.6828179359436	ITI	0		60	AV	2.0				399.8511850833893	0.9974391460418701
166	393.6802570819855	stim	1		10	AV	2.0				400.84862422943115	0.16658687591552734
166	393.846843957901	response_window	2		30	AV	2.0				401.0152111053467	0.4994049072265625
166	394.31491208076477	response	2	V		AV	2.0	l	0.0	0.46806812286376953	401.48327922821045	
167	394.34624886512756	ITI	0		60	AV	16.0				401.51461601257324	0.999913215637207
167	395.34616208076477	stim	1		24	AV	16.0				402.51452922821045	0.39969587326049805
167	395.74585795402527	response_window	2		43	AV	16.0				402.91422510147095	0.7191059589385986
167	396.43066692352295	response	2	V		AV	16.0	l	0.0	0.6848089694976807	403.5990340709686	
168	396.46496391296387	ITI	0		58	AV	32.0				403.63333106040955	0.9640021324157715
168	397.42896604537964	stim	1		40	AV	32.0				404.5973331928253	0.666348934173584
168	398.0953149795532	response_window	2		23	AV	32.0				405.2636821269989	0.3852040767669678
168	398.44666600227356	response	2	V		AV	32.0	l	0.0	0.3513510227203369	405.61503314971924	
169	398.4805190563202	ITI	0		59	AV	8.0				405.64888620376587	0.9809479713439941
169	399.4614670276642	stim	1		16	AV	8.0				406.62983417510986	0.26643896102905273
169	399.72790598869324	response_window	2		33	AV	8.0				406.8962731361389	0.5523679256439209
169	400.24579906463623	response	2	A		AV	8.0	a	1.0	0.5178930759429932	407.4141662120819	
170	400.28027391433716	ITI	0		70	VA	64.0				407.44864106178284	1.1638710498809814
170	401.44414496421814	stim	1		72	VA	64.0				408.6125121116638	1.1995599269866943
170	402.64370489120483	response_window	2		32	VA	64.0				409.8120720386505	0.5350961685180664
170	403.14492988586426	response	2	A		VA	64.0	a	0.0	0.5012249946594238	410.31329703330994	
171	403.1788010597229	ITI	0		70	AV	32.0				410.3471682071686	1.1644058227539062
171	404.3432068824768	stim	1		40	AV	32.0				411.5115740299225	0.6664481163024902
171	405.0096549987793	response_window	2		30	AV	32.0				412.178022146225	0.5024490356445312
171	405.47768688201904	response	2	A		AV	32.0	a	1.0	0.4680318832397461	412.6460540294647	
172	405.5121040344238	ITI	0		65	AV	2.0				412.6804711818695	1.0804128646850586
172	406.5925168991089	stim	1		10	AV	2.0				413.76088404655457	0.16654109954833984
172	406.7590579986572	response_window	2		31	AV	2.0				413.9274251461029	0.5188539028167725
172	407.24341106414795	response	2	V		AV	2.0	l	0.0	0.48435306549072266	414.4117782115936	
173	407.277911901474	ITI	0		56	VA	0.0				414.4462790489197	0.9306471347808838
173	408.2085590362549	stim	1		8	VA	0.0				415.37692618370056	0.13329195976257324
173	408.34185099601746	response_window	2		25	VA	0.0				415.51021814346313	0.41869187355041504
173	408.72646594047546	response	2	V		VA	0.0	l	1.0	0.3846149444580078	415.89483308792114	
174	408.76054286956787	ITI	0		60	VA	32.0				415.92891001701355	0.9974150657653809
174	409.75795793533325	stim	1		40	VA	32.0				416.92632508277893	0.6667361259460449
174	410.4246940612793	response_window	2		43	VA	32.0				417.593061208725	0.7188198566436768
174	411.108913898468	response	2	V		VA	32.0	l	1.0	0.6842198371887207	418.2772810459137	
175	411.143513917923	ITI	0		70	AV	8.0				418.31188106536865	1.1633520126342773
175	412.30686593055725	stim	1		16	AV	8.0				419.47523307800293	0.26703596115112305
175	412.5739018917084	response_window	2		33	AV	8.0				419.74226903915405	0.5523300170898438
175	413.09118485450745	response	2	A		AV	8.0	a	1.0	0.5172829627990723	420.2595520019531	
176	413.1262319087982	ITI	0		77	AV	32.0				420.2945990562439	1.2802200317382812
176	414.4064519405365	stim	1		40	AV	32.0				421.5748190879822	0.6662881374359131
176	415.0727400779724	response_window	2		26	AV	32.0				422.2411072254181	0.43530988693237305
176	415.4735870361328	response	2	A		AV	32.0	a	1.0	0.4008469581604004	422.6419541835785	
177	415.5080499649048	ITI	0		76	AV	32.0				422.67641711235046	1.2642550468444824
177	416.77230501174927	stim	1		40	AV	32.0				423.94067215919495	0.6664729118347168
177	417.438777923584	response_window	2		24	AV	32.0				424.60714507102966	0.40128397941589355
177	417.80647706985474	response	2	A		AV	32.0	a	1.0	0.36769914627075195	424.9748442173004	
178	417.8400619029999	ITI	0		73	AV	64.0				425.00842905044556	1.2149381637573242
178	419.0550000667572	stim	1		72	AV	64.0				426.2233672142029	1.1994178295135498
178	420.25441789627075	response_window	2		15	AV	64.0				427.42278504371643	0.2522420883178711
178	420.4722480773926	response	2	A		AV	64.0	a	1.0	0.21783018112182617	427.64061522483826	
179	420.5066599845886	ITI	0		68	VA	32.0				427.6750271320343	1.130634069442749
179	421.6372940540314	stim	1		40	VA	32.0				428.80566120147705	0.6665308475494385
179	422.3038249015808	response_window	2		22	VA	32.0				429.4721920490265	0.3686060905456543
179	422.63831400871277	response	2	V		VA	32.0	l	1.0	0.334489107131958	429.80668115615845	
180	422.67243099212646	ITI	0		78	AV	32.0				429.84079813957214	1.2975139617919922
180	423.96994495391846	stim	1		40	AV	32.0				431.13831210136414	0.6663200855255127
180	424.63626503944397	response_window	2		57	AV	32.0				431.80463218688965	0.9515998363494873
180	425.5539140701294	response	2	A		AV	32.0	a	1.0	0.9176490306854248	432.7222812175751	
181	425.58786487579346	ITI	0		66	VA	16.0				432.75623202323914	1.0977981090545654
181	426.685662984848	stim	1		24	VA	16.0				433.8540301322937	0.39986395835876465
181	427.0855269432068	response_window	2		26	VA	16.0				434.25389409065247	0.43511009216308594
181	427.48657488822937	response	2	V		VA	16.0	l	1.0	0.401047945022583	434.65494203567505	
182	427.5206370353699	ITI	0		59	AV	32.0				434.68900418281555	0.981036901473999
182	428.5016739368439	stim	1		40	AV	32.0				435.67004108428955	0.6665370464324951
182	429.16821098327637	response_window	2		77	AV	32.0				436.33657813072205	1.2843399047851562
182	430.41927695274353	response	2	A		AV	32.0	a	1.0	1.251065969467163	437.5876441001892	
183	430.4525508880615	ITI	0		77	AV	4.0				437.6209180355072	1.281243085861206
183	431.73379397392273	stim	1		12	AV	4.0				438.9021611213684	0.19995498657226562
183	431.933748960495	response_window	2		55	AV	4.0				439.1021161079407	0.917823076248169
183	432.81833505630493	response	2	A		AV	4.0	a	1.0	0.8845860958099365	439.9867022037506	
184	432.85157203674316	ITI	0		57	AV	64.0				440.01993918418884	0.9483790397644043
184	433.79995107650757	stim	1		72	AV	64.0				440.96831822395325	1.1997029781341553
184	434.9996540546417	response_window	2		14	AV	64.0				442.1680212020874	0.23525381088256836
184	435.2008168697357	response	2	A		AV	64.0	a	1.0	0.20116281509399414	442.3691840171814	
185	435.2349078655243	ITI	0		54	VA	32.0				442.40327501296997	0.8977069854736328
185	436.1326148509979	stim	1		40	VA	32.0				443.3009819984436	0.6663269996643066
185	436.51676297187805	response	1			VA	32.0	l			443.68513011932373	
185	436.79894185066223	response_window	2		27	VA	32.0				443.9673089981079	0.4493842124938965
185	437.21684885025024	response	2	V		VA	32.0	l	1.0	0.4179069995880127	444.3852159976959	
186	437.2483260631561	ITI	0		70	VA	4.0				444.4166932106018	1.166733980178833
186	438.41506004333496	stim	1		12	VA	4.0				445.58342719078064	0.20015501976013184
186	438.6152150630951	response_window	2		86	VA	4.0				445.78358221054077	1.4346249103546143
186	440.01584696769714	response	2	A		VA	4.0	a	0.0	1.4006319046020508	447.1842141151428	
187	440.0498399734497	ITI	0		62	VA	0.0				447.2182071208954	1.030864953994751
187	441.08070492744446	stim	1		8	VA	0.0				448.24907207489014	0.13311004638671875
187	441.2138149738312	response_window	2		18	VA	0.0				448.38218212127686	0.29987406730651855
187	441.4820559024811	response	2	V		VA	0.0	l	1.0	0.26824092864990234	448.65042304992676	
188	441.5136890411377	ITI	0		62	AV	8.0				448.6820561885834	1.0332369804382324
188	442.5469260215759	stim	1		16	AV	8.0				449.7152931690216	0.2665560245513916
188	442.8134820461273	response_window	2		38	AV	8.0				449.981849193573	0.6347088813781738
188	443.4140088558197	response	2	A		AV	8.0	a	1.0	0.6005268096923828	450.5823760032654	
189	443.4481909275055	ITI	0		68	VA	16.0				450.6165580749512	1.1313340663909912
189	444.5795249938965	stim	1		24	VA	16.0				451.74789214134216	0.39975905418395996
189	444.97928404808044	response_window	2		41	VA	16.0				452.1476511955261	0.6849830150604248
189	445.6302649974823	response	2	V		VA	16.0	l	1.0	0.6509809494018555	452.798632144928	
190	445.66426706314087	ITI	0		75	VA	8.0				452.83263421058655	1.247999906539917
190	446.9122669696808	stim	1		16	VA	8.0				454.08063411712646	0.2664980888366699
190	447.17876505851746	response_window	2		35	VA	8.0				454.34713220596313	0.5855169296264648
190	447.73000597953796	response	2	V		VA	8.0	l	1.0	0.5512409210205078	454.89837312698364	
191	447.7642819881439	ITI	0		73	VA	8.0				454.9326491355896	1.2137730121612549
191	448.9780550003052	stim	1		16	VA	8.0				456.14642214775085	0.26678991317749023
191	449.24484491348267	response_window	2		34	VA	8.0				456.41321206092834	0.5674641132354736
191	449.7791419029236	response	2	V		VA	8.0	l	1.0	0.534296989440918	456.94750905036926	
192	449.81230902671814	ITI	0		59	AV	16.0				456.9806761741638	0.9816279411315918
192	450.79393696784973	stim	1		24	AV	16.0				457.9623041152954	0.4001278877258301
192	451.19406485557556	response_window	2		32	AV	16.0				458.36243200302124	0.5348281860351562
192	451.695188999176	response	2	A		AV	16.0	a	1.0	0.5011241436004639	458.8635561466217	
193	451.7288930416107	ITI	0		55	AV	4.0				458.8972601890564	0.9146909713745117
193	452.64358401298523	stim	1		12	AV	4.0				459.8119511604309	0.1998920440673828
193	452.8434760570526	response_window	2		21	AV	4.0				460.0118432044983	0.3493809700012207
193	453.16147089004517	response	2	V		AV	4.0	l	0.0	0.3179948329925537	460.32983803749084	
194	453.19285702705383	ITI	0		60	VA	64.0				460.3612241744995	1.000269889831543
194	454.1931269168854	stim	1		72	VA	64.0				461.36149406433105	1.1995370388031006
194	455.3926639556885	response_window	2		29	VA	64.0				462.56103110313416	0.4851949214935303
194	455.8434898853302	response	2	A		VA	64.0	a	0.0	0.45082592964172363	463.0118570327759	
195	455.877858877182	ITI	0		60	AV	32.0				463.0462260246277	0.9976811408996582
195	456.87554001808167	stim	1		40	AV	32.0				464.04390716552734	0.6663360595703125
195	457.541876077652	response_window	2		34	AV	32.0				464.71024322509766	0.5690188407897949
195	458.07637095451355	response	2	V		AV	32.0	l	0.0	0.5344948768615723	465.24473810195923	
196	458.1108949184418	ITI	0		77	AV	8.0				465.27926206588745	1.2802150249481201
196	459.3911099433899	stim	1		16	AV	8.0				466.55947709083557	0.2667350769042969
196	459.6578450202942	response_window	2		55	AV	8.0				466.82621216773987	0.9182529449462891
196	460.5423438549042	response	2	A		AV	8.0	a	1.0	0.8844988346099854	467.71071100234985	
197	460.5760979652405	ITI	0		74	AV	32.0				467.74446511268616	1.2308309078216553
197	461.80692887306213	stim	1		40	AV	32.0				468.9752960205078	0.6665091514587402
197	462.4734380245209	response_window	2		81	AV	32.0				469.64180517196655	1.351759910583496
197	463.7909779548645	response	2	A		AV	32.0	a	1.0	1.317539930343628	470.9593451023102	
198	463.82519793510437	ITI	0		75	AV	16.0				470.99356508255005	1.2475359439849854
198	465.07273387908936	stim	1		24	AV	16.0				472.24110102653503	0.3997831344604492
198	465.4725170135498	response_window	2		37	AV	16.0				472.6408841609955	0.6179349422454834
198	466.0567810535431	response	2	A		AV	16.0	a	1.0	0.5842640399932861	473.22514820098877	
199	466.0904519557953	ITI	0		61	VA	16.0				473.25881910324097	1.0148029327392578
199	467.10525488853455	stim	1		24	VA	16.0				474.2736220359802	0.4000129699707031
199	467.50526785850525	response_window	2		109	VA	16.0				474.6736350059509	1.8180742263793945
199	469.289479970932	response	2	V		VA	16.0	l	1.0	1.7842121124267578	476.4578471183777	
200	469.32334208488464	ITI	0		74	AV	2.0				476.4917092323303	1.2305147647857666
200	470.5538568496704	stim	1		10	AV	2.0				477.7222239971161	0.16682720184326172
200	470.7206840515137	response_window	2		97	AV	2.0				477.88905119895935	1.6183459758758545
200	472.3049478530884	response	2	V		AV	2.0	l	0.0	1.584263801574707	479.47331500053406	
201	472.3390300273895	ITI	0		68	VA	8.0				479.5073971748352	1.130789041519165
201	473.4698190689087	stim	1		16	VA	8.0				480.63818621635437	0.26656198501586914
201	473.73638105392456	response_window	2		31	VA	8.0				480.90474820137024	0.5189838409423828
201	474.2208468914032	response	2	A		VA	8.0	a	0.0	0.4844658374786377	481.3892140388489	
202	474.25536489486694	ITI	0		76	VA	8.0				481.4237320423126	1.2636630535125732
202	475.5190279483795	stim	1		16	VA	8.0				482.6873950958252	0.26662111282348633
202	475.785649061203	response_window	2		25	VA	8.0				482.9540162086487	0.4186677932739258
202	476.1703100204468	response	2	V		VA	8.0	l	1.0	0.3846609592437744	483.33867716789246	
203	476.20431685447693	ITI	0		56	AV	32.0				483.3726840019226	0.9310810565948486
203	477.1353979110718	stim	1		40	AV	32.0				484.30376505851746	0.6662180423736572
203	477.80161595344543	response_window	2		37	AV	32.0				484.9699831008911	0.6191530227661133
203	478.386559009552	response	2	A		AV	32.0	a	1.0	0.5849430561065674	485.5549261569977	
204	478.42076897621155	ITI	0		69	VA	64.0				485.5891361236572	1.1471610069274902
204	479.56792998313904	stim	1		72	VA	64.0				486.7362971305847	1.1994071006774902
204	480.7673370838165	response_window	2		44	VA	64.0				487.9357042312622	0.7355079650878906
204	481.4682059288025	response	2	V		VA	64.0	l	1.0	0.7008688449859619	488.63657307624817	
205	481.5028450489044	ITI	0		59	AV	2.0				488.6712121963501	0.9807209968566895
205	482.4835660457611	stim	1		10	AV	2.0				489.6519331932068	0.16640281677246094
205	482.64996886253357	response_window	2		23	AV	2.0				489.81833600997925	0.3851921558380127
205	483.00110697746277	response	2	A		AV	2.0	a	1.0	0.3511381149291992	490.16947412490845	
206	483.0351610183716	ITI	0		54	VA	32.0				490.20352816581726	0.8978300094604492
206	483.93299102783203	stim	1		40	VA	32.0				491.1013581752777	0.6663818359375
206	484.59937286376953	response_window	2		28	VA	32.0				491.7677400112152	0.4687471389770508
206	485.03349804878235	response	2	V		VA	32.0	l	1.0	0.4341251850128174	492.201865196228	
207	485.0681200027466	ITI	0		54	VA	64.0				492.23648715019226	0.8973948955535889
207	485.96551489830017	stim	1		72	VA	64.0				493.13388204574585	1.199524164199829
207	487.1650390625	response_window	2		36	VA	64.0				494.3334062099457	0.6012330055236816
207	487.73276591300964	response	2	V		VA	64.0	l	1.0	0.5677268505096436	494.9011330604553	
208	487.7662720680237	ITI	0		75	VA	2.0				494.93463921546936	1.2484478950500488
208	489.01471996307373	stim	1		10	VA	2.0				496.1830871105194	0.1665360927581787
208	489.1812560558319	response_window	2		32	VA	2.0				496.3496232032776	0.5357868671417236
208	489.68270802497864	response	2	A		VA	2.0	a	0.0	0.5014519691467285	496.8510751724243	
209	489.71704292297363	ITI	0		58	VA	16.0				496.8854100704193	0.9637329578399658
209	490.6807758808136	stim	1		24	VA	16.0				497.8491430282593	0.39986109733581543
209	491.0806369781494	response_window	2		62	VA	16.0				498.2490041255951	1.0355150699615479
209	492.08172392845154	response	2	V		VA	16.0	l	1.0	1.001086950302124	499.2500910758972	
210	492.11615204811096	ITI	0		70	AV	2.0				499.28451919555664	1.1637158393859863
210	493.27986788749695	stim	1		10	AV	2.0				500.4482350349426	0.16662907600402832
210	493.446496963501	response_window	2		72	AV	2.0				500.61486411094666	1.2016370296478271
210	494.61412286758423	response	2	A		AV	2.0	a	1.0	1.167625904083252	501.7824900150299	
211	494.6481339931488	ITI	0		54	AV	8.0				501.8165011405945	0.8975028991699219
211	495.5456368923187	stim	1		16	AV	8.0				502.7140040397644	0.26653313636779785
211	495.8121700286865	response_window	2		53	AV	8.0				502.9805371761322	0.885706901550293
211	496.6630439758301	response	2	V		AV	8.0	l	0.0	0.8508739471435547	503.83141112327576	
212	496.6978769302368	ITI	0		70	VA	64.0				503.8662440776825	1.163694143295288
212	497.8615710735321	stim	1		72	VA	64.0				505.0299382209778	1.1996738910675049
212	499.0612449645996	response_window	2		83	VA	64.0				506.2296121120453	1.3849968910217285
212	500.4119670391083	response	2	V		VA	64.0	l	1.0	1.350722074508667	507.58033418655396	
213	500.44624185562134	ITI	0		63	VA	8.0				507.614609003067	1.047375202178955
213	501.4936170578003	stim	1		16	VA	8.0				508.661984205246	0.2666959762573242
213	501.7603130340576	response_window	2		58	VA	8.0				508.9286801815033	0.9682669639587402
213	502.6945700645447	response	2	V		VA	8.0	l	1.0	0.9342570304870605	509.86293721199036	
214	502.72857999801636	ITI	0		69	VA	2.0				509.89694714546204	1.1476850509643555
214	503.8762650489807	stim	1		10	VA	2.0				511.0446321964264	0.16656994819641113
214	504.0428349971771	response_window	2		54	VA	2.0				511.2112021446228	0.9019200801849365
214	504.91042304039	response	2	V		VA	2.0	l	1.0	0.8675880432128906	512.0787901878357	
215	504.94475507736206	ITI	0		61	VA	0.0				512.1131222248077	1.0142018795013428
215	505.9589569568634	stim	1		8	VA	0.0				513.1273241043091	0.13328194618225098
215	506.09223890304565	response_window	2		54	VA	0.0				513.2606060504913	0.9019181728363037
215	506.9599030017853	response	2	V		VA	0.0	l	1.0	0.867664098739624	514.128270149231	
216	506.99415707588196	ITI	0		60	VA	64.0				514.1625242233276	0.9973738193511963
216	507.99153089523315	stim	1		72	VA	64.0				515.1598980426788	1.199537992477417
216	509.19106888771057	response_window	2		21	VA	64.0				516.3594360351562	0.3525841236114502
216	509.50888299942017	response	2	V		VA	64.0	l	1.0	0.3178141117095947	516.6772501468658	
217	509.543653011322	ITI	0		76	VA	16.0				516.7120201587677	1.2636170387268066
217	510.8072700500488	stim	1		24	VA	16.0				517.9756371974945	0.3997378349304199
217	511.20700788497925	response_window	2		33	VA	16.0				518.3753750324249	0.5518720149993896
217	511.7250249385834	response	2	A		VA	16.0	a	0.0	0.518017053604126	518.893392086029	
218	511.75887989997864	ITI	0		59	AV	16.0				518.9272470474243	0.9811661243438721
218	512.7400460243225	stim	1		24	AV	16.0				519.9084131717682	0.3998148441314697
218	513.139860868454	response_window	2		32	AV	16.0				520.3082280158997	0.5349771976470947
218	513.6400640010834	response	2	A		AV	16.0	a	1.0	0.5002031326293945	520.808431148529	
219	513.6748380661011	ITI	0		60	VA	4.0				520.8432052135468	0.9973328113555908
219	514.6721708774567	stim	1		12	VA	4.0				521.8405380249023	0.2002580165863037
219	514.872428894043	response_window	2		47	VA	4.0				522.0407960414886	0.7855610847473145
219	515.6236610412598	response	2	A		VA	4.0	a	0.0	0.7512321472167969	522.7920281887054	
220	515.6579899787903	ITI	0		58	VA	32.0				522.826357126236	0.9637959003448486
220	516.6217858791351	stim	1		40	VA	32.0				523.7901530265808	0.6664102077484131
220	517.2881960868835	response_window	2		30	VA	32.0				524.4565632343292	0.5023269653320312
220	517.7560980319977	response	2	V		VA	32.0	l	1.0	0.46790194511413574	524.9244651794434	
221	517.7905230522156	ITI	0		66	VA	4.0				524.9588901996613	1.097442865371704
221	518.8879659175873	stim	1		12	VA	4.0				526.056333065033	0.1999220848083496
221	519.0878880023956	response_window	2		80	VA	4.0				526.2562551498413	1.3350870609283447
221	520.3885390758514	response	2	A		VA	4.0	a	0.0	1.3006510734558105	527.5569062232971	
222	520.422975063324	ITI	0		54	VA	2.0				527.5913422107697	0.8972129821777344
222	521.3201880455017	stim	1		10	VA	2.0				528.4885551929474	0.16705584526062012
222	521.4872438907623	response_window	2		44	VA	2.0				528.655611038208	0.7345211505889893
222	522.1881060600281	response	2	V		VA	2.0	l	1.0	0.7008621692657471	529.3564732074738	
223	522.2217650413513	ITI	0		72	VA	16.0				529.390132188797	1.1980388164520264
223	523.4198038578033	stim	1		24	VA	16.0				530.588171005249	0.3996851444244385
223	523.8194890022278	response_window	2		23	VA	16.0				530.9878561496735	0.3857240676879883
223	524.1708278656006	response	2	A		VA	16.0	a	0.0	0.35133886337280273	531.3391950130463	
224	524.2052130699158	ITI	0		54	AV	2.0				531.3735802173615	0.8972949981689453
224	525.1025080680847	stim	1		10	AV	2.0				532.2708752155304	0.16652894020080566
224	525.2690370082855	response_window	2		72	AV	2.0				532.4374041557312	1.2028889656066895
224	526.4368178844452	response	2	V		AV	2.0	l	0.0	1.167780876159668	533.6051850318909	
225	526.4719259738922	ITI	0		57	AV	4.0				533.6402931213379	0.946403980255127
225	527.4183299541473	stim	1		12	AV	4.0				534.586697101593	0.20017504692077637
225	527.6185050010681	response_window	2		41	AV	4.0				534.7868721485138	0.6846139430999756
225	528.2694599628448	response	2	A		AV	4.0	a	1.0	0.6509549617767334	535.4378271102905	
226	528.3031189441681	ITI	0		62	VA	4.0				535.4714860916138	1.0311779975891113
226	529.3342969417572	stim	1		12	VA	4.0				536.5026640892029	0.19985604286193848
226	529.5341529846191	response_window	2		83	VA	4.0				536.7025201320648	1.3851709365844727
226	530.8851590156555	response	2	A		VA	4.0	a	0.0	1.351006031036377	538.0535261631012	
227	530.9193239212036	ITI	0		57	VA	8.0				538.0876910686493	0.9474561214447021
227	531.8667800426483	stim	1		16	VA	8.0				539.035147190094	0.266556978225708
227	532.133337020874	response_window	2		35	VA	8.0				539.3017041683197	0.5855300426483154
227	532.684366941452	response	2	V		VA	8.0	l	1.0	0.5510299205780029	539.8527340888977	
228	532.7188670635223	ITI	0		66	AV	4.0				539.887234210968	1.0971119403839111
228	533.8159790039062	stim	1		12	AV	4.0				540.9843461513519	0.20009398460388184
228	534.0160729885101	response_window	2		41	AV	4.0				541.1844401359558	0.6852540969848633
228	534.6670379638672	response	2	V		AV	4.0	l	0.0	0.6509649753570557	541.8354051113129	
229	534.701327085495	ITI	0		78	AV	2.0				541.8696942329407	1.2973389625549316
229	535.9986660480499	stim	1		10	AV	2.0				543.1670331954956	0.1666579246520996
229	536.165323972702	response_window	2		19	AV	2.0				543.3336911201477	0.31603288650512695
229	536.4497940540314	response	2	A		AV	2.0	a	1.0	0.2844700813293457	543.618161201477	
230	536.4813568592072	ITI	0		55	VA	0.0				543.6497240066528	0.9169092178344727
230	537.3982660770416	stim	1		8	VA	0.0				544.5666332244873	0.13316082954406738
230	537.5314269065857	response_window	2		21	VA	0.0				544.6997940540314	0.3522031307220459
230	537.8491959571838	response	2	V		VA	0.0	l	1.0	0.31776905059814453	545.0175631046295	
231	537.8836300373077	ITI	0		70	VA	4.0				545.0519971847534	1.1640918254852295
231	539.047721862793	stim	1		12	VA	4.0				546.2160890102386	0.1996760368347168
231	539.2473978996277	response_window	2		34	VA	4.0				546.4157650470734	0.5683431625366211
231	539.7814869880676	response	2	V		VA	4.0	l	1.0	0.5340890884399414	546.9498541355133	
232	539.8157410621643	ITI	0		62	VA	2.0				546.98410820961	1.031270980834961
232	540.8470120429993	stim	1		10	VA	2.0				548.015379190445	0.16666793823242188
232	541.0136799812317	response_window	2		50	VA	2.0				548.1820471286774	0.8357908725738525
232	541.814465045929	response	2	V		VA	2.0	l	1.0	0.8007850646972656	548.9828321933746	
233	541.8494708538055	ITI	0		71	VA	64.0				549.0178380012512	1.1803359985351562
233	543.0298068523407	stim	1		72	VA	64.0				550.1981739997864	1.1994571685791016
233	544.2292640209198	response_window	2		25	VA	64.0				551.3976311683655	0.4174008369445801
233	544.6139829158783	response	2	A		VA	64.0	a	0.0	0.3847188949584961	551.782350063324	
234	544.6466648578644	ITI	0		60	VA	4.0				551.8150320053101	0.9987850189208984
234	545.6454498767853	stim	1		12	VA	4.0				552.813817024231	0.20006418228149414
234	545.8455140590668	response_window	2		28	VA	4.0				553.0138812065125	0.4660069942474365
234	546.2798049449921	response	2	V		VA	4.0	l	1.0	0.43429088592529297	553.4481720924377	
235	546.3115210533142	ITI	0		59	VA	16.0				553.4798882007599	0.983374834060669
235	547.2948958873749	stim	1		24	VA	16.0				554.4632630348206	0.3999030590057373
235	547.6947989463806	response_window	2		20	VA	16.0				554.8631660938263	0.33539891242980957
235	547.9958579540253	response	2	V		VA	16.0	l	1.0	0.3010590076446533	555.164225101471	
236	548.0301978588104	ITI	0		69	AV	64.0				555.1985650062561	1.147217035293579
236	549.177414894104	stim	1		72	AV	64.0				556.3457820415497	1.1998341083526611
236	550.3772490024567	response_window	2		76	AV	64.0				557.5456161499023	1.2683320045471191
236	551.6113109588623	response	2	A		AV	64.0	a	1.0	1.2340619564056396	558.779678106308	
237	551.6455810070038	ITI	0		78	AV	2.0				558.8139481544495	1.297450065612793
237	552.9430310726166	stim	1		10	AV	2.0				560.1113982200623	0.1665799617767334
237	553.1096110343933	response_window	2		60	AV	2.0				560.277978181839	1.0020558834075928
237	554.077036857605	response	2	A		AV	2.0	a	1.0	0.9674258232116699	561.2454040050507	
238	554.1116669178009	ITI	0		73	VA	2.0				561.2800340652466	1.213758945465088
238	555.325425863266	stim	1		10	VA	2.0				562.4937930107117	0.1668109893798828
238	555.4922368526459	response_window	2		39	VA	2.0				562.6606040000916	0.6516191959381104
238	556.1100490093231	response	2	A		VA	2.0	a	0.0	0.6178121566772461	563.2784161567688	
239	556.143856048584	ITI	0		66	VA	2.0				563.3122231960297	1.0976710319519043
239	557.2415270805359	stim	1		10	VA	2.0				564.4098942279816	0.16677379608154297
239	557.4083008766174	response_window	2		24	VA	2.0				564.5766680240631	0.4021739959716797
239	557.7761499881744	response	2	A		VA	2.0	a	0.0	0.36784911155700684	564.9445171356201	
240	557.8104748725891	ITI	0		75	VA	2.0				564.9788420200348	1.2472500801086426
240	559.0577249526978	stim	1		10	VA	2.0				566.2260921001434	0.16658401489257812
240	559.2243089675903	response_window	2		57	VA	2.0				566.392676115036	0.9516360759735107
240	560.1418030261993	response	2	V		VA	2.0	l	1.0	0.9174940586090088	567.310170173645	
241	560.1759450435638	ITI	0		55	AV	64.0				567.3443121910095	0.9139838218688965
241	561.0899288654327	stim	1		72	AV	64.0				568.2582960128784	1.1998751163482666
241	562.289803981781	response_window	2		44	AV	64.0				569.4581711292267	0.7349209785461426
241	562.9908349514008	response	2	A		AV	64.0	a	1.0	0.701030969619751	570.1592020988464	
242	563.0247249603271	ITI	0		69	AV	4.0				570.1930921077728	1.1477160453796387
242	564.1724410057068	stim	1		12	AV	4.0				571.3408081531525	0.20003294944763184
242	564.3724739551544	response_window	2		91	AV	4.0				571.5408411026001	1.5191230773925781
242	565.8569619655609	response	2	V		AV	4.0	l	0.0	1.4844880104064941	573.0253291130066	
243	565.891597032547	ITI	0		54	AV	2.0				573.0599641799927	0.8967218399047852
243	566.7883188724518	stim	1		10	AV	2.0				573.9566860198975	0.1664891242980957
243	566.9548079967499	response_window	2		40	AV	2.0				574.1231751441956	0.6662399768829346
243	567.5894010066986	response	2	V		AV	2.0	l	0.0	0.6345930099487305	574.7577681541443	
244	567.6210479736328	ITI	0		70	VA	2.0				574.7894151210785	1.1664578914642334
244	568.787505865097	stim	1		10	VA	2.0				575.9558730125427	0.1664140224456787
244	568.9539198875427	response_window	2		80	VA	2.0				576.1222870349884	1.3350980281829834
244	570.254842042923	response	2	A		VA	2.0	a	0.0	1.300922155380249	577.4232091903687	
245	570.2890179157257	ITI	0		60	AV	16.0				577.4573850631714	0.9976379871368408
245	571.2866559028625	stim	1		24	AV	16.0				578.4550230503082	0.400007963180542
245	571.6866638660431	response_window	2		43	AV	16.0				578.8550310134888	0.7190451622009277
245	572.3712129592896	response	2	A		AV	16.0	a	1.0	0.68454909324646	579.5395801067352	
246	572.405709028244	ITI	0		60	VA	8.0				579.5740761756897	0.9970178604125977
246	573.4027268886566	stim	1		16	VA	8.0				580.5710940361023	0.26676297187805176
246	573.6694898605347	response_window	2		40	VA	8.0				580.8378570079803	0.668654203414917
246	574.3038630485535	response	2	V		VA	8.0	l	1.0	0.6343731880187988	581.4722301959991	
247	574.3381440639496	ITI	0		54	VA	32.0				581.5065112113953	0.8973557949066162
247	575.2354998588562	stim	1		40	VA	32.0				582.4038670063019	0.6663010120391846
247	575.9018008708954	response_window	2		24	VA	32.0				583.0701680183411	0.4014730453491211
247	576.269896030426	response	2	V		VA	32.0	l	1.0	0.36809515953063965	583.4382631778717	
248	576.3032739162445	ITI	0		54	VA	64.0				583.4716410636902	0.8980860710144043
248	577.2013599872589	stim	1		72	VA	64.0				584.3697271347046	1.199873924255371
248	578.4012339115143	response_window	2		17	VA	64.0				585.56960105896	0.28409600257873535
248	578.6522979736328	response	2	V		VA	64.0	l	1.0	0.2510640621185303	585.8206651210785	
249	578.685329914093	ITI	0		73	AV	8.0				585.8536970615387	1.2152609825134277
249	579.9005908966064	stim	1		16	AV	8.0				587.0689580440521	0.2665750980377197
249	580.1671659946442	response_window	2		25	AV	8.0				587.3355331420898	0.41637206077575684
249	580.5518238544464	response	2	A		AV	8.0	a	1.0	0.3846578598022461	587.7201910018921	
250	580.5835380554199	ITI	0		74	VA	0.0				587.7519052028656	1.233184814453125
250	581.816722869873	stim	1		8	VA	0.0				588.9850900173187	0.13312602043151855
250	581.9498488903046	response_window	2		28	VA	0.0				589.1182160377502	0.46879100799560547
250	582.3843920230865	response	2	V		VA	0.0	l	1.0	0.4345431327819824	589.5527591705322	
251	582.4186398983002	ITI	0		77	VA	4.0				589.5870070457458	1.2806391716003418
251	583.6992790699005	stim	1		12	VA	4.0				590.8676462173462	0.1999678611755371
251	583.899246931076	response_window	2		54	VA	4.0				591.0676140785217	0.9024019241333008
251	584.7670240402222	response	2	V		VA	4.0	l	1.0	0.8677771091461182	591.9353911876678	
252	584.8016488552094	ITI	0		67	AV	32.0				591.970016002655	1.113396167755127
252	585.9150450229645	stim	1		40	AV	32.0				593.0834121704102	0.6666998863220215
252	586.5817449092865	response_window	2		20	AV	32.0				593.7501120567322	0.3355550765991211
252	586.8826580047607	response	2	A		AV	32.0	a	1.0	0.30091309547424316	594.0510251522064	
253	586.9172999858856	ITI	0		65	VA	0.0				594.0856671333313	1.080359935760498
253	587.9976599216461	stim	1		8	VA	0.0				595.1660270690918	0.13337302207946777
253	588.1310329437256	response_window	2		72	VA	0.0				595.2994000911713	1.201807975769043
253	589.2986118793488	response	2	A		VA	0.0	a	0.0	1.167578935623169	596.4669790267944	
254	589.3328409194946	ITI	0		60	VA	0.0				596.5012080669403	0.9975659847259521
254	590.3304069042206	stim	1		8	VA	0.0				597.4987740516663	0.1333770751953125
254	590.4637839794159	response_window	2		24	VA	0.0				597.6321511268616	0.40191102027893066
254	590.8315708637238	response	2	V		VA	0.0	l	1.0	0.36778688430786133	597.9999380111694	
255	590.8656949996948	ITI	0		58	VA	32.0				598.0340621471405	0.964000940322876
255	591.8296959400177	stim	1		40	VA	32.0				598.9980630874634	0.6667270660400391
255	592.4964230060577	response_window	2		11	VA	32.0				599.6647901535034	0.18563389778137207
255	592.647402048111	response	2	V		VA	32.0	l	1.0	0.15097904205322266	599.8157691955566	
256	592.6820569038391	ITI	0		72	AV	8.0				599.8504240512848	1.1972270011901855
256	593.8792839050293	stim	1		16	AV	8.0				601.047651052475	0.2665140628814697
256	594.1457979679108	response_window	2		29	AV	8.0				601.3141651153564	0.48610901832580566
256	594.5970509052277	response	2	A		AV	8.0	a	1.0	0.45125293731689453	601.7654180526733	
257	594.6319069862366	ITI	0		56	VA	32.0				601.8002741336823	0.9300429821014404
257	595.561949968338	stim	1		40	VA	32.0				602.7303171157837	0.6665620803833008
257	596.2285120487213	response_window	2		17	VA	32.0				603.396879196167	0.28296399116516113
257	596.4795339107513	response	2	V		VA	32.0	l	1.0	0.2510218620300293	603.647901058197	
258	596.5114760398865	ITI	0		55	AV	2.0				603.6798431873322	0.9165928363800049
258	597.4280688762665	stim	1		10	AV	2.0				604.5964360237122	0.16643500328063965
258	597.5945038795471	response_window	2		27	AV	2.0				604.7628710269928	0.45152902603149414
258	598.0120949745178	response	2	A		AV	2.0	a	1.0	0.4175910949707031	605.1804621219635	
258	598.012228012085	response	2	V		AV	2.0	l	0.0	0.4177241325378418	605.1805951595306	
259	598.0460329055786	ITI	0		66	VA	16.0				605.2144000530243	1.0979201793670654
259	599.1439530849457	stim	1		24	VA	16.0				606.3123202323914	0.40010881423950195
259	599.5440618991852	response_window	2		18	VA	16.0				606.7124290466309	0.3018491268157959
259	599.811961889267	response	2	V		VA	16.0	l	1.0	0.2678999900817871	606.9803290367126	
