trial_nr	onset	event_type	phase	response	nr_frames	trial_type	stim_dur	oneOverF_texture_path	dot_color_timings_   0	dot_color_timings_   1	dot_color_timings_   2	dot_color_timings_   3	dot_color_timings_   4	dot_color_timings_   5	dot_color_timings_   6	dot_color_timings_   7	dot_color_timings_   8	dot_color_timings_   9	dot_color_timings_  10	dot_color_timings_  11	dot_color_timings_  12	dot_color_timings_  13	dot_color_timings_  14	dot_color_timings_  15	dot_color_timings_  16	dot_color_timings_  17	dot_color_timings_  18	dot_color_timings_  19	dot_color_timings_  20	dot_color_timings_  21	dot_color_timings_  22	dot_color_timings_  23	dot_color_timings_  24	dot_color_timings_  25	dot_color_timings_  26	dot_color_timings_  27	dot_color_timings_  28	dot_color_timings_  29	dot_color_timings_  30	dot_color_timings_  31	dot_color_timings_  32	dot_color_timings_  33	dot_color_timings_  34	dot_color_timings_  35	dot_color_timings_  36	dot_color_timings_  37	dot_color_timings_  38	dot_color_timings_  39	dot_color_timings_  40	dot_color_timings_  41	dot_color_timings_  42	dot_color_timings_  43	dot_color_timings_  44	dot_color_timings_  45	dot_color_timings_  46	dot_color_timings_  47	dot_color_timings_  48	dot_color_timings_  49	dot_color_timings_  50	dot_color_timings_  51	dot_color_timings_  52	dot_color_timings_  53	dot_color_timings_  54	dot_color_timings_  55	dot_color_timings_  56	dot_color_timings_  57	dot_color_timings_  58	dot_color_timings_  59	dot_color_timings_  60	dot_color_timings_  61	dot_color_timings_  62	dot_color_timings_  63	dot_color_timings_  64	dot_color_timings_  65	dot_color_timings_  66	dot_color_timings_  67	dot_color_timings_  68	dot_color_timings_  69	dot_color_timings_  70	dot_color_timings_  71	dot_color_timings_  72	dot_color_timings_  73	dot_color_timings_  74	dot_color_timings_  75	dot_color_timings_  76	dot_color_timings_  77	dot_color_timings_  78	dot_color_timings_  79	dot_color_timings_  80	dot_color_timings_  81	dot_color_timings_  82	dot_color_timings_  83	dot_color_timings_  84	dot_color_timings_  85	dot_color_timings_  86	dot_color_timings_  87	dot_color_timings_  88	dot_color_timings_  89	dot_color_timings_  90	dot_color_timings_  91	dot_color_timings_  92	dot_color_timings_  93	dot_color_timings_  94	dot_color_timings_  95	dot_color_timings_  96	dot_color_timings_  97	dot_color_timings_  98	dot_color_timings_  99	dot_color_timings_ 100	dot_color_timings_ 101	onset_abs	duration
0	0.017085790634155273	stim	0		79.0	dur	0.0	./textures/oneOverF_texture_1_1024_1.bmp	334	681	1269	1692	2114	2536	2990	3311	3718	4190	4656	5065	5423	5808	6195	6681	7148	7599	7976	8399	8865	9077	9651	9970	10437	10910	11351	11814	12073	12572	12940	13294	13691	14211	14754	14947	15515	15904	16217	16715	17192	17509	18051	18506	18757	19159	19755	20044	20497	20825	21370	21697	22085	22628	23055	23445	23833	24203	24619	25096	25673	25897	26280	26841	27170	27581	28151	28441	28965	29424	29704	30249	30575	31132	31456	31966	32230	32671	33059	33611	33854	34335	34759	35163	35718	35970	36428	36872	37411	37704	38182	38675	38891	39508	39770	40208	40678	40995	41593	42000	42378	42749	13.892222881317139	0.7300050258636475
0	0.7470908164978027	stim	1		96.0	dur	0.0	./textures/oneOverF_texture_1_1024_1.bmp	334	681	1269	1692	2114	2536	2990	3311	3718	4190	4656	5065	5423	5808	6195	6681	7148	7599	7976	8399	8865	9077	9651	9970	10437	10910	11351	11814	12073	12572	12940	13294	13691	14211	14754	14947	15515	15904	16217	16715	17192	17509	18051	18506	18757	19159	19755	20044	20497	20825	21370	21697	22085	22628	23055	23445	23833	24203	24619	25096	25673	25897	26280	26841	27170	27581	28151	28441	28965	29424	29704	30249	30575	31132	31456	31966	32230	32671	33059	33611	33854	34335	34759	35163	35718	35970	36428	36872	37411	37704	38182	38675	38891	39508	39770	40208	40678	40995	41593	42000	42378	42749	14.622227907180786	0.850006103515625
0	1.5970969200134277	stim	2		304.0	dur	0.0	./textures/oneOverF_texture_1_1024_1.bmp	334	681	1269	1692	2114	2536	2990	3311	3718	4190	4656	5065	5423	5808	6195	6681	7148	7599	7976	8399	8865	9077	9651	9970	10437	10910	11351	11814	12073	12572	12940	13294	13691	14211	14754	14947	15515	15904	16217	16715	17192	17509	18051	18506	18757	19159	19755	20044	20497	20825	21370	21697	22085	22628	23055	23445	23833	24203	24619	25096	25673	25897	26280	26841	27170	27581	28151	28441	28965	29424	29704	30249	30575	31132	31456	31966	32230	32671	33059	33611	33854	34335	34759	35163	35718	35970	36428	36872	37411	37704	38182	38675	38891	39508	39770	40208	40678	40995	41593	42000	42378	42749	15.472234010696411	2.6170361042022705
1	4.214133024215698	stim	0		80.0	isi	2.0	./textures/oneOverF_texture_1_1024_6.bmp	248	894	1108	1598	2044	2464	2909	3397	3794	4068	4527	5089	5413	5845	6152	6637	7178	7566	7959	8234	8717	9091	9652	9958	10453	10970	11383	11776	12003	12471	12959	13305	13874	14133	14549	15171	15536	15784	16370	16726	17270	17551	17925	18514	18914	19156	19641	20030	20585	20918	21315	21811	22180	22556	23030	23348	23944	24309	24659	25189	25524	26064	26439	26865	27321	27643	28199	28538	29022	29293	29810	30092	30609	31090	31423	31755	32268	32717	33229	33603	34007	34359	34818	35279	35615	36093	36382	36820	37274	37775	38168	38581	38958	39484	39890	40373	40609	41053	41630	41838	42288	42788	18.08927011489868	0.6835367679595947
1	4.897669792175293	stim	1		96.0	isi	2.0	./textures/oneOverF_texture_1_1024_6.bmp	248	894	1108	1598	2044	2464	2909	3397	3794	4068	4527	5089	5413	5845	6152	6637	7178	7566	7959	8234	8717	9091	9652	9958	10453	10970	11383	11776	12003	12471	12959	13305	13874	14133	14549	15171	15536	15784	16370	16726	17270	17551	17925	18514	18914	19156	19641	20030	20585	20918	21315	21811	22180	22556	23030	23348	23944	24309	24659	25189	25524	26064	26439	26865	27321	27643	28199	28538	29022	29293	29810	30092	30609	31090	31423	31755	32268	32717	33229	33603	34007	34359	34818	35279	35615	36093	36382	36820	37274	37775	38168	38581	38958	39484	39890	40373	40609	41053	41630	41838	42288	42788	18.772806882858276	0.8499932289123535
1	5.7476630210876465	stim	2		304.0	isi	2.0	./textures/oneOverF_texture_1_1024_6.bmp	248	894	1108	1598	2044	2464	2909	3397	3794	4068	4527	5089	5413	5845	6152	6637	7178	7566	7959	8234	8717	9091	9652	9958	10453	10970	11383	11776	12003	12471	12959	13305	13874	14133	14549	15171	15536	15784	16370	16726	17270	17551	17925	18514	18914	19156	19641	20030	20585	20918	21315	21811	22180	22556	23030	23348	23944	24309	24659	25189	25524	26064	26439	26865	27321	27643	28199	28538	29022	29293	29810	30092	30609	31090	31423	31755	32268	32717	33229	33603	34007	34359	34818	35279	35615	36093	36382	36820	37274	37775	38168	38581	38958	39484	39890	40373	40609	41053	41630	41838	42288	42788	19.62280011177063	2.625297784805298
2	8.372960805892944	stim	0		80.0	dur	4.0	./textures/oneOverF_texture_1_1024_8.bmp	339	853	1268	1680	2072	2451	2924	3291	3763	4034	4651	4895	5328	5700	6355	6764	7114	7488	7842	8348	8749	9262	9602	9929	10535	10958	11329	11634	12128	12438	12920	13499	13682	14241	14549	14962	15588	15822	16298	16649	17245	17504	17883	18333	18910	19349	19775	20138	20619	20924	21356	21749	22271	22619	22932	23519	23808	24415	24756	25162	25656	25870	26394	26793	27202	27567	27967	28491	28955	29403	29718	30218	30607	30964	31490	31926	32315	32651	33219	33472	34027	34401	34827	35320	35621	36081	36513	36917	37413	37850	38235	38672	38980	39347	39936	40256	40734	41160	41432	41976	42248	42670	22.248097896575928	0.6913840770721436
2	9.064344882965088	stim	1		96.0	dur	4.0	./textures/oneOverF_texture_1_1024_8.bmp	339	853	1268	1680	2072	2451	2924	3291	3763	4034	4651	4895	5328	5700	6355	6764	7114	7488	7842	8348	8749	9262	9602	9929	10535	10958	11329	11634	12128	12438	12920	13499	13682	14241	14549	14962	15588	15822	16298	16649	17245	17504	17883	18333	18910	19349	19775	20138	20619	20924	21356	21749	22271	22619	22932	23519	23808	24415	24756	25162	25656	25870	26394	26793	27202	27567	27967	28491	28955	29403	29718	30218	30607	30964	31490	31926	32315	32651	33219	33472	34027	34401	34827	35320	35621	36081	36513	36917	37413	37850	38235	38672	38980	39347	39936	40256	40734	41160	41432	41976	42248	42670	22.93948197364807	0.8495490550994873
2	9.913893938064575	stim	2		304.0	dur	4.0	./textures/oneOverF_texture_1_1024_8.bmp	339	853	1268	1680	2072	2451	2924	3291	3763	4034	4651	4895	5328	5700	6355	6764	7114	7488	7842	8348	8749	9262	9602	9929	10535	10958	11329	11634	12128	12438	12920	13499	13682	14241	14549	14962	15588	15822	16298	16649	17245	17504	17883	18333	18910	19349	19775	20138	20619	20924	21356	21749	22271	22619	22932	23519	23808	24415	24756	25162	25656	25870	26394	26793	27202	27567	27967	28491	28955	29403	29718	30218	30607	30964	31490	31926	32315	32651	33219	33472	34027	34401	34827	35320	35621	36081	36513	36917	37413	37850	38235	38672	38980	39347	39936	40256	40734	41160	41432	41976	42248	42670	23.78903102874756	2.625473976135254
3	12.539367914199829	stim	0		80.0	isi	8.0	./textures/oneOverF_texture_1_1024_9.bmp	364	786	1225	1598	2049	2373	2837	3375	3641	4115	4604	4949	5421	5813	6197	6721	6971	7419	7900	8269	8708	9231	9532	10022	10392	10779	11377	11639	12168	12510	13021	13369	13877	14142	14557	15168	15504	15876	16332	16822	17098	17511	18077	18380	18922	19305	19710	20136	20554	21056	21304	21679	22176	22660	23057	23383	23983	24301	24806	25110	25616	25914	26394	26730	27318	27549	28099	28514	28930	29220	29667	30155	30562	30917	31402	31968	32207	32766	33124	33514	34014	34443	34707	35173	35758	36077	36537	37012	37420	37693	38125	38500	38937	39430	39915	40199	40728	41074	41559	41898	42256	42711	26.414505004882812	0.6750369071960449
3	13.214404821395874	stim	1		96.0	isi	8.0	./textures/oneOverF_texture_1_1024_9.bmp	364	786	1225	1598	2049	2373	2837	3375	3641	4115	4604	4949	5421	5813	6197	6721	6971	7419	7900	8269	8708	9231	9532	10022	10392	10779	11377	11639	12168	12510	13021	13369	13877	14142	14557	15168	15504	15876	16332	16822	17098	17511	18077	18380	18922	19305	19710	20136	20554	21056	21304	21679	22176	22660	23057	23383	23983	24301	24806	25110	25616	25914	26394	26730	27318	27549	28099	28514	28930	29220	29667	30155	30562	30917	31402	31968	32207	32766	33124	33514	34014	34443	34707	35173	35758	36077	36537	37012	37420	37693	38125	38500	38937	39430	39915	40199	40728	41074	41559	41898	42256	42711	27.089541912078857	0.8501071929931641
3	13.300282001495361	pulse	1	t		isi	8.0	./textures/oneOverF_texture_1_1024_9.bmp	364	786	1225	1598	2049	2373	2837	3375	3641	4115	4604	4949	5421	5813	6197	6721	6971	7419	7900	8269	8708	9231	9532	10022	10392	10779	11377	11639	12168	12510	13021	13369	13877	14142	14557	15168	15504	15876	16332	16822	17098	17511	18077	18380	18922	19305	19710	20136	20554	21056	21304	21679	22176	22660	23057	23383	23983	24301	24806	25110	25616	25914	26394	26730	27318	27549	28099	28514	28930	29220	29667	30155	30562	30917	31402	31968	32207	32766	33124	33514	34014	34443	34707	35173	35758	36077	36537	37012	37420	37693	38125	38500	38937	39430	39915	40199	40728	41074	41559	41898	42256	42711	27.175419092178345	
3	14.064512014389038	stim	2		304.0	isi	8.0	./textures/oneOverF_texture_1_1024_9.bmp	364	786	1225	1598	2049	2373	2837	3375	3641	4115	4604	4949	5421	5813	6197	6721	6971	7419	7900	8269	8708	9231	9532	10022	10392	10779	11377	11639	12168	12510	13021	13369	13877	14142	14557	15168	15504	15876	16332	16822	17098	17511	18077	18380	18922	19305	19710	20136	20554	21056	21304	21679	22176	22660	23057	23383	23983	24301	24806	25110	25616	25914	26394	26730	27318	27549	28099	28514	28930	29220	29667	30155	30562	30917	31402	31968	32207	32766	33124	33514	34014	34443	34707	35173	35758	36077	36537	37012	37420	37693	38125	38500	38937	39430	39915	40199	40728	41074	41559	41898	42256	42711	27.93964910507202	2.600397825241089
4	16.664909839630127	stim	0		80.0	dur	16.0	./textures/oneOverF_texture_1_1024_7.bmp	409	768	1208	1518	2026	2458	2823	3318	3814	4185	4600	4866	5291	5727	6307	6711	7192	7601	8024	8279	8756	9267	9538	10021	10336	10829	11395	11590	12187	12572	12971	13484	13853	14320	14541	15018	15400	15889	16208	16733	17246	17582	17893	18383	18830	19307	19790	20050	20534	20985	21413	21775	22121	22569	23111	23516	23774	24379	24732	25062	25590	25937	26421	26920	27309	27577	28060	28563	28907	29453	29781	30136	30650	31073	31332	31765	32386	32625	33033	33440	34052	34484	34850	35271	35644	36075	36499	36889	37415	37801	38165	38530	38960	39425	39745	40172	40690	41186	41468	41939	42283	42665	30.54004693031311	0.7083330154418945
4	17.37324285507202	stim	1		96.0	dur	16.0	./textures/oneOverF_texture_1_1024_7.bmp	409	768	1208	1518	2026	2458	2823	3318	3814	4185	4600	4866	5291	5727	6307	6711	7192	7601	8024	8279	8756	9267	9538	10021	10336	10829	11395	11590	12187	12572	12971	13484	13853	14320	14541	15018	15400	15889	16208	16733	17246	17582	17893	18383	18830	19307	19790	20050	20534	20985	21413	21775	22121	22569	23111	23516	23774	24379	24732	25062	25590	25937	26421	26920	27309	27577	28060	28563	28907	29453	29781	30136	30650	31073	31332	31765	32386	32625	33033	33440	34052	34484	34850	35271	35644	36075	36499	36889	37415	37801	38165	38530	38960	39425	39745	40172	40690	41186	41468	41939	42283	42665	31.248379945755005	0.8084909915924072
4	18.18173384666443	stim	2		304.0	dur	16.0	./textures/oneOverF_texture_1_1024_7.bmp	409	768	1208	1518	2026	2458	2823	3318	3814	4185	4600	4866	5291	5727	6307	6711	7192	7601	8024	8279	8756	9267	9538	10021	10336	10829	11395	11590	12187	12572	12971	13484	13853	14320	14541	15018	15400	15889	16208	16733	17246	17582	17893	18383	18830	19307	19790	20050	20534	20985	21413	21775	22121	22569	23111	23516	23774	24379	24732	25062	25590	25937	26421	26920	27309	27577	28060	28563	28907	29453	29781	30136	30650	31073	31332	31765	32386	32625	33033	33440	34052	34484	34850	35271	35644	36075	36499	36889	37415	37801	38165	38530	38960	39425	39745	40172	40690	41186	41468	41939	42283	42665	32.05687093734741	2.6087169647216797
5	20.79045081138611	stim	0		80.0	isi	32.0	./textures/oneOverF_texture_1_1024_0.bmp	420	712	1233	1519	2152	2416	2860	3214	3798	4253	4474	4916	5423	5713	6273	6718	7081	7406	7962	8426	8735	9157	9655	10119	10370	10789	11334	11624	12134	12492	12964	13419	13765	14201	14537	14967	15592	15848	16437	16676	17227	17581	17928	18418	18906	19241	19753	20047	20525	21052	21301	21881	22313	22729	23089	23453	23838	24184	24825	25200	25463	25862	26285	26715	27166	27688	28126	28517	28801	29291	29687	30128	30639	30957	31450	31877	32351	32803	33055	33593	34063	34391	34809	35171	35528	36058	36419	36995	37313	37772	38154	38699	39000	39352	39743	40356	40601	41106	41531	42003	42245	42896	34.66558790206909	0.7084710597991943
5	21.498921871185303	stim	1		96.0	isi	32.0	./textures/oneOverF_texture_1_1024_0.bmp	420	712	1233	1519	2152	2416	2860	3214	3798	4253	4474	4916	5423	5713	6273	6718	7081	7406	7962	8426	8735	9157	9655	10119	10370	10789	11334	11624	12134	12492	12964	13419	13765	14201	14537	14967	15592	15848	16437	16676	17227	17581	17928	18418	18906	19241	19753	20047	20525	21052	21301	21881	22313	22729	23089	23453	23838	24184	24825	25200	25463	25862	26285	26715	27166	27688	28126	28517	28801	29291	29687	30128	30639	30957	31450	31877	32351	32803	33055	33593	34063	34391	34809	35171	35528	36058	36419	36995	37313	37772	38154	38699	39000	39352	39743	40356	40601	41106	41531	42003	42245	42896	35.374058961868286	0.8083820343017578
5	22.30730390548706	stim	2		304.0	isi	32.0	./textures/oneOverF_texture_1_1024_0.bmp	420	712	1233	1519	2152	2416	2860	3214	3798	4253	4474	4916	5423	5713	6273	6718	7081	7406	7962	8426	8735	9157	9655	10119	10370	10789	11334	11624	12134	12492	12964	13419	13765	14201	14537	14967	15592	15848	16437	16676	17227	17581	17928	18418	18906	19241	19753	20047	20525	21052	21301	21881	22313	22729	23089	23453	23838	24184	24825	25200	25463	25862	26285	26715	27166	27688	28126	28517	28801	29291	29687	30128	30639	30957	31450	31877	32351	32803	33055	33593	34063	34391	34809	35171	35528	36058	36419	36995	37313	37772	38154	38699	39000	39352	39743	40356	40601	41106	41531	42003	42245	42896	36.182440996170044	2.608783006668091
6	24.91608691215515	stim	0		80.0	dur	64.0	./textures/oneOverF_texture_1_1024_3.bmp	307	821	1133	1605	2131	2539	2828	3372	3789	4057	4668	4919	5300	5713	6315	6760	7044	7552	7901	8285	8813	9239	9568	9912	10439	10905	11227	11719	12160	12618	12884	13332	13801	14193	14647	14957	15448	15876	16387	16837	17201	17692	18010	18503	18826	19323	19616	20170	20406	20889	21442	21899	22259	22674	23069	23375	23931	24263	24676	25167	25558	25992	26444	26742	27289	27765	28172	28452	28812	29436	29778	30153	30484	30927	31545	31841	32164	32757	33105	33430	33857	34332	34758	35311	35618	35985	36542	36894	37292	37735	38116	38461	38899	39410	39750	40294	40631	40992	41430	42019	42338	42731	38.791224002838135	0.7084619998931885
6	25.62454891204834	stim	1		96.0	dur	64.0	./textures/oneOverF_texture_1_1024_3.bmp	307	821	1133	1605	2131	2539	2828	3372	3789	4057	4668	4919	5300	5713	6315	6760	7044	7552	7901	8285	8813	9239	9568	9912	10439	10905	11227	11719	12160	12618	12884	13332	13801	14193	14647	14957	15448	15876	16387	16837	17201	17692	18010	18503	18826	19323	19616	20170	20406	20889	21442	21899	22259	22674	23069	23375	23931	24263	24676	25167	25558	25992	26444	26742	27289	27765	28172	28452	28812	29436	29778	30153	30484	30927	31545	31841	32164	32757	33105	33430	33857	34332	34758	35311	35618	35985	36542	36894	37292	37735	38116	38461	38899	39410	39750	40294	40631	40992	41430	42019	42338	42731	39.49968600273132	0.8084170818328857
6	26.432965993881226	stim	2		304.0	dur	64.0	./textures/oneOverF_texture_1_1024_3.bmp	307	821	1133	1605	2131	2539	2828	3372	3789	4057	4668	4919	5300	5713	6315	6760	7044	7552	7901	8285	8813	9239	9568	9912	10439	10905	11227	11719	12160	12618	12884	13332	13801	14193	14647	14957	15448	15876	16387	16837	17201	17692	18010	18503	18826	19323	19616	20170	20406	20889	21442	21899	22259	22674	23069	23375	23931	24263	24676	25167	25558	25992	26444	26742	27289	27765	28172	28452	28812	29436	29778	30153	30484	30927	31545	31841	32164	32757	33105	33430	33857	34332	34758	35311	35618	35985	36542	36894	37292	37735	38116	38461	38899	39410	39750	40294	40631	40992	41430	42019	42338	42731	40.30810308456421	2.6087088584899902
7	29.041674852371216	stim	0		80.0	isi	0.0	./textures/oneOverF_texture_1_1024_4.bmp	424	838	1164	1512	1994	2406	2941	3373	3742	4087	4599	4882	5460	5789	6270	6564	7149	7575	7824	8304	8653	9171	9543	9929	10479	10934	11182	11592	12171	12634	12847	13341	13907	14238	14604	15015	15422	15830	16266	16825	17129	17576	17910	18346	18855	19222	19757	20176	20514	21059	21289	21702	22240	22679	23109	23345	23809	24387	24627	25104	25506	26090	26487	26738	27232	27650	28089	28402	29014	29238	29854	30289	30556	31059	31328	31798	32222	32639	33002	33475	33927	34493	34813	35242	35666	36165	36381	36905	37436	37823	38248	38673	38988	39532	39730	40277	40792	41010	41631	42011	42350	42886	42.9168119430542	0.7166931629180908
7	29.758368015289307	stim	1		96.0	isi	0.0	./textures/oneOverF_texture_1_1024_4.bmp	424	838	1164	1512	1994	2406	2941	3373	3742	4087	4599	4882	5460	5789	6270	6564	7149	7575	7824	8304	8653	9171	9543	9929	10479	10934	11182	11592	12171	12634	12847	13341	13907	14238	14604	15015	15422	15830	16266	16825	17129	17576	17910	18346	18855	19222	19757	20176	20514	21059	21289	21702	22240	22679	23109	23345	23809	24387	24627	25104	25506	26090	26487	26738	27232	27650	28089	28402	29014	29238	29854	30289	30556	31059	31328	31798	32222	32639	33002	33475	33927	34493	34813	35242	35666	36165	36381	36905	37436	37823	38248	38673	38988	39532	39730	40277	40792	41010	41631	42011	42350	42886	43.63350510597229	0.8501908779144287
7	30.608558893203735	stim	2		304.0	isi	0.0	./textures/oneOverF_texture_1_1024_4.bmp	424	838	1164	1512	1994	2406	2941	3373	3742	4087	4599	4882	5460	5789	6270	6564	7149	7575	7824	8304	8653	9171	9543	9929	10479	10934	11182	11592	12171	12634	12847	13341	13907	14238	14604	15015	15422	15830	16266	16825	17129	17576	17910	18346	18855	19222	19757	20176	20514	21059	21289	21702	22240	22679	23109	23345	23809	24387	24627	25104	25506	26090	26487	26738	27232	27650	28089	28402	29014	29238	29854	30289	30556	31059	31328	31798	32222	32639	33002	33475	33927	34493	34813	35242	35666	36165	36381	36905	37436	37823	38248	38673	38988	39532	39730	40277	40792	41010	41631	42011	42350	42886	44.48369598388672	2.5754001140594482
8	33.183959007263184	stim	0		80.0	dur	2.0	./textures/oneOverF_texture_1_1024_5.bmp	257	722	1170	1612	2041	2527	2922	3206	3786	4064	4465	4894	5382	5778	6304	6571	7031	7469	7909	8326	8767	9073	9521	9973	10510	10826	11230	11805	12216	12431	12911	13349	13708	14236	14569	15098	15382	15910	16210	16632	17146	17524	18068	18406	18721	19205	19769	20128	20616	21038	21353	21689	22156	22550	23120	23446	23967	24326	24810	25141	25658	26094	26337	26754	27273	27578	27990	28580	28885	29373	29770	30211	30598	31119	31528	31846	32391	32695	33151	33457	34048	34332	34846	35306	35615	35952	36423	36857	37426	37690	38068	38684	38953	39465	39841	40364	40763	41081	41461	41822	42315	42714	47.05909609794617	0.7084038257598877
8	33.89236283302307	stim	1		96.0	dur	2.0	./textures/oneOverF_texture_1_1024_5.bmp	257	722	1170	1612	2041	2527	2922	3206	3786	4064	4465	4894	5382	5778	6304	6571	7031	7469	7909	8326	8767	9073	9521	9973	10510	10826	11230	11805	12216	12431	12911	13349	13708	14236	14569	15098	15382	15910	16210	16632	17146	17524	18068	18406	18721	19205	19769	20128	20616	21038	21353	21689	22156	22550	23120	23446	23967	24326	24810	25141	25658	26094	26337	26754	27273	27578	27990	28580	28885	29373	29770	30211	30598	31119	31528	31846	32391	32695	33151	33457	34048	34332	34846	35306	35615	35952	36423	36857	37426	37690	38068	38684	38953	39465	39841	40364	40763	41081	41461	41822	42315	42714	47.767499923706055	0.8417870998382568
8	34.73414993286133	stim	2		304.0	dur	2.0	./textures/oneOverF_texture_1_1024_5.bmp	257	722	1170	1612	2041	2527	2922	3206	3786	4064	4465	4894	5382	5778	6304	6571	7031	7469	7909	8326	8767	9073	9521	9973	10510	10826	11230	11805	12216	12431	12911	13349	13708	14236	14569	15098	15382	15910	16210	16632	17146	17524	18068	18406	18721	19205	19769	20128	20616	21038	21353	21689	22156	22550	23120	23446	23967	24326	24810	25141	25658	26094	26337	26754	27273	27578	27990	28580	28885	29373	29770	30211	30598	31119	31528	31846	32391	32695	33151	33457	34048	34332	34846	35306	35615	35952	36423	36857	37426	37690	38068	38684	38953	39465	39841	40364	40763	41081	41461	41822	42315	42714	48.60928702354431	2.6087820529937744
9	37.3429319858551	stim	0		80.0	isi	4.0	./textures/oneOverF_texture_1_1024_2.bmp	288	702	1283	1725	2152	2457	2815	3200	3743	4078	4646	4883	5473	5778	6246	6654	7074	7543	8003	8271	8845	9141	9515	10138	10398	10787	11234	11781	12055	12476	12906	13340	13808	14281	14747	15006	15421	15843	16438	16747	17087	17597	17911	18469	18758	19180	19597	20076	20635	20852	21386	21795	22118	22734	22927	23551	23939	24353	24757	25055	25520	25986	26381	26852	27359	27687	28198	28431	29031	29353	29869	30254	30709	31138	31521	31869	32196	32777	33190	33579	33888	34298	34688	35337	35586	36004	36409	36925	37262	37854	38155	38663	38976	39462	39730	40314	40746	41094	41490	41823	42372	42808	51.218069076538086	0.6750898361206055
9	38.01802182197571	stim	1		96.0	isi	4.0	./textures/oneOverF_texture_1_1024_2.bmp	288	702	1283	1725	2152	2457	2815	3200	3743	4078	4646	4883	5473	5778	6246	6654	7074	7543	8003	8271	8845	9141	9515	10138	10398	10787	11234	11781	12055	12476	12906	13340	13808	14281	14747	15006	15421	15843	16438	16747	17087	17597	17911	18469	18758	19180	19597	20076	20635	20852	21386	21795	22118	22734	22927	23551	23939	24353	24757	25055	25520	25986	26381	26852	27359	27687	28198	28431	29031	29353	29869	30254	30709	31138	31521	31869	32196	32777	33190	33579	33888	34298	34688	35337	35586	36004	36409	36925	37262	37854	38155	38663	38976	39462	39730	40314	40746	41094	41490	41823	42372	42808	51.89315891265869	0.8502161502838135
9	38.86823797225952	stim	2		304.0	isi	4.0	./textures/oneOverF_texture_1_1024_2.bmp	288	702	1283	1725	2152	2457	2815	3200	3743	4078	4646	4883	5473	5778	6246	6654	7074	7543	8003	8271	8845	9141	9515	10138	10398	10787	11234	11781	12055	12476	12906	13340	13808	14281	14747	15006	15421	15843	16438	16747	17087	17597	17911	18469	18758	19180	19597	20076	20635	20852	21386	21795	22118	22734	22927	23551	23939	24353	24757	25055	25520	25986	26381	26852	27359	27687	28198	28431	29031	29353	29869	30254	30709	31138	31521	31869	32196	32777	33190	33579	33888	34298	34688	35337	35586	36004	36409	36925	37262	37854	38155	38663	38976	39462	39730	40314	40746	41094	41490	41823	42372	42808	52.743375062942505	2.6179418563842773
10	41.4861798286438	stim	0		80.0	dur	8.0	./textures/oneOverF_texture_1_1024_1.bmp	315	713	1214	1531	1944	2385	2789	3256	3769	4056	4672	5035	5432	5902	6222	6734	6981	7604	7923	8430	8730	9078	9693	10069	10344	10974	11337	11737	12079	12644	12890	13323	13686	14124	14607	15161	15542	15936	16421	16705	17258	17678	18083	18426	18834	19266	19620	20045	20430	20842	21273	21841	22284	22540	23061	23543	23846	24277	24830	25028	25624	26047	26290	26779	27171	27713	28026	28381	29025	29257	29831	30125	30547	31077	31365	31805	32166	32683	33068	33487	33918	34360	34826	35336	35568	36085	36393	36915	37396	37664	38061	38683	38913	39306	39836	40263	40683	41102	41446	41992	42447	42678	55.36131691932678	0.6834681034088135
10	42.16964793205261	stim	1		96.0	dur	8.0	./textures/oneOverF_texture_1_1024_1.bmp	315	713	1214	1531	1944	2385	2789	3256	3769	4056	4672	5035	5432	5902	6222	6734	6981	7604	7923	8430	8730	9078	9693	10069	10344	10974	11337	11737	12079	12644	12890	13323	13686	14124	14607	15161	15542	15936	16421	16705	17258	17678	18083	18426	18834	19266	19620	20045	20430	20842	21273	21841	22284	22540	23061	23543	23846	24277	24830	25028	25624	26047	26290	26779	27171	27713	28026	28381	29025	29257	29831	30125	30547	31077	31365	31805	32166	32683	33068	33487	33918	34360	34826	35336	35568	36085	36393	36915	37396	37664	38061	38683	38913	39306	39836	40263	40683	41102	41446	41992	42447	42678	56.044785022735596	0.8500368595123291
10	43.01968479156494	stim	2		304.0	dur	8.0	./textures/oneOverF_texture_1_1024_1.bmp	315	713	1214	1531	1944	2385	2789	3256	3769	4056	4672	5035	5432	5902	6222	6734	6981	7604	7923	8430	8730	9078	9693	10069	10344	10974	11337	11737	12079	12644	12890	13323	13686	14124	14607	15161	15542	15936	16421	16705	17258	17678	18083	18426	18834	19266	19620	20045	20430	20842	21273	21841	22284	22540	23061	23543	23846	24277	24830	25028	25624	26047	26290	26779	27171	27713	28026	28381	29025	29257	29831	30125	30547	31077	31365	31805	32166	32683	33068	33487	33918	34360	34826	35336	35568	36085	36393	36915	37396	37664	38061	38683	38913	39306	39836	40263	40683	41102	41446	41992	42447	42678	56.894821882247925	2.6170871257781982
11	45.63677191734314	stim	0		80.0	isi	16.0	./textures/oneOverF_texture_1_1024_6.bmp	309	718	1107	1607	2155	2370	2961	3411	3698	4247	4624	5038	5413	5905	6348	6638	6969	7452	8016	8430	8646	9201	9497	9984	10382	10767	11358	11704	12051	12528	12999	13467	13726	14193	14550	15054	15532	16015	16369	16810	17070	17642	17895	18372	18808	19338	19648	19991	20619	20859	21336	21834	22249	22549	22980	23481	23776	24392	24781	25058	25513	26011	26320	26891	27247	27776	28054	28581	28854	29285	29647	30153	30613	31057	31344	31967	32371	32787	33015	33561	33900	34475	34766	35188	35633	36125	36523	36945	37300	37727	38276	38506	39115	39413	39872	40344	40773	41041	41444	41985	42478	42814	59.51190900802612	0.6834290027618408
11	46.32020092010498	stim	1		96.0	isi	16.0	./textures/oneOverF_texture_1_1024_6.bmp	309	718	1107	1607	2155	2370	2961	3411	3698	4247	4624	5038	5413	5905	6348	6638	6969	7452	8016	8430	8646	9201	9497	9984	10382	10767	11358	11704	12051	12528	12999	13467	13726	14193	14550	15054	15532	16015	16369	16810	17070	17642	17895	18372	18808	19338	19648	19991	20619	20859	21336	21834	22249	22549	22980	23481	23776	24392	24781	25058	25513	26011	26320	26891	27247	27776	28054	28581	28854	29285	29647	30153	30613	31057	31344	31967	32371	32787	33015	33561	33900	34475	34766	35188	35633	36125	36523	36945	37300	37727	38276	38506	39115	39413	39872	40344	40773	41041	41444	41985	42478	42814	60.195338010787964	0.8500359058380127
11	47.17023682594299	stim	2		304.0	isi	16.0	./textures/oneOverF_texture_1_1024_6.bmp	309	718	1107	1607	2155	2370	2961	3411	3698	4247	4624	5038	5413	5905	6348	6638	6969	7452	8016	8430	8646	9201	9497	9984	10382	10767	11358	11704	12051	12528	12999	13467	13726	14193	14550	15054	15532	16015	16369	16810	17070	17642	17895	18372	18808	19338	19648	19991	20619	20859	21336	21834	22249	22549	22980	23481	23776	24392	24781	25058	25513	26011	26320	26891	27247	27776	28054	28581	28854	29285	29647	30153	30613	31057	31344	31967	32371	32787	33015	33561	33900	34475	34766	35188	35633	36125	36523	36945	37300	37727	38276	38506	39115	39413	39872	40344	40773	41041	41444	41985	42478	42814	61.04537391662598	2.625429153442383
12	49.795665979385376	stim	0		80.0	dur	32.0	./textures/oneOverF_texture_1_1024_8.bmp	246	780	1121	1669	2007	2519	2989	3276	3708	4090	4592	5056	5342	5811	6138	6681	7067	7393	8020	8313	8795	9099	9714	9975	10518	10745	11313	11637	12222	12633	12958	13265	13767	14125	14697	15062	15504	15796	16287	16794	17270	17600	17911	18408	18795	19342	19695	20130	20429	20863	21310	21748	22210	22630	23043	23349	23850	24337	24830	25187	25441	25968	26478	26885	27184	27639	28131	28394	28868	29333	29713	30132	30512	31086	31457	31817	32394	32736	33149	33596	33874	34323	34909	35160	35723	35988	36414	36983	37288	37759	38262	38659	39044	39373	39914	40155	40636	41214	41538	41860	42409	42783	63.67080307006836	0.6834549903869629
12	50.47912096977234	stim	1		96.0	dur	32.0	./textures/oneOverF_texture_1_1024_8.bmp	246	780	1121	1669	2007	2519	2989	3276	3708	4090	4592	5056	5342	5811	6138	6681	7067	7393	8020	8313	8795	9099	9714	9975	10518	10745	11313	11637	12222	12633	12958	13265	13767	14125	14697	15062	15504	15796	16287	16794	17270	17600	17911	18408	18795	19342	19695	20130	20429	20863	21310	21748	22210	22630	23043	23349	23850	24337	24830	25187	25441	25968	26478	26885	27184	27639	28131	28394	28868	29333	29713	30132	30512	31086	31457	31817	32394	32736	33149	33596	33874	34323	34909	35160	35723	35988	36414	36983	37288	37759	38262	38659	39044	39373	39914	40155	40636	41214	41538	41860	42409	42783	64.35425806045532	0.8501260280609131
12	51.32924699783325	stim	2		304.0	dur	32.0	./textures/oneOverF_texture_1_1024_8.bmp	246	780	1121	1669	2007	2519	2989	3276	3708	4090	4592	5056	5342	5811	6138	6681	7067	7393	8020	8313	8795	9099	9714	9975	10518	10745	11313	11637	12222	12633	12958	13265	13767	14125	14697	15062	15504	15796	16287	16794	17270	17600	17911	18408	18795	19342	19695	20130	20429	20863	21310	21748	22210	22630	23043	23349	23850	24337	24830	25187	25441	25968	26478	26885	27184	27639	28131	28394	28868	29333	29713	30132	30512	31086	31457	31817	32394	32736	33149	33596	33874	34323	34909	35160	35723	35988	36414	36983	37288	37759	38262	38659	39044	39373	39914	40155	40636	41214	41538	41860	42409	42783	65.20438408851624	2.700371026992798
13	54.02961802482605	stim	0		80.0	isi	64.0	./textures/oneOverF_texture_1_1024_9.bmp	358	806	1107	1673	2092	2576	2853	3263	3664	4206	4558	4860	5378	5818	6297	6758	7179	7572	7888	8320	8827	9253	9560	9913	10433	10841	11272	11633	12082	12514	13050	13429	13808	14245	14541	14979	15482	15898	16438	16735	17203	17493	18060	18341	18888	19305	19765	20093	20505	20991	21434	21678	22240	22519	22987	23459	23787	24369	24750	25255	25503	25948	26302	26794	27358	27682	27966	28424	28889	29353	29877	30286	30553	31137	31504	31839	32270	32651	33220	33538	34065	34313	34877	35305	35563	36142	36401	36792	37430	37675	38177	38668	39103	39323	39798	40357	40732	41146	41639	41925	42479	42865	67.90475511550903	0.7171299457550049
13	54.746747970581055	stim	1		96.0	isi	64.0	./textures/oneOverF_texture_1_1024_9.bmp	358	806	1107	1673	2092	2576	2853	3263	3664	4206	4558	4860	5378	5818	6297	6758	7179	7572	7888	8320	8827	9253	9560	9913	10433	10841	11272	11633	12082	12514	13050	13429	13808	14245	14541	14979	15482	15898	16438	16735	17203	17493	18060	18341	18888	19305	19765	20093	20505	20991	21434	21678	22240	22519	22987	23459	23787	24369	24750	25255	25503	25948	26302	26794	27358	27682	27966	28424	28889	29353	29877	30286	30553	31137	31504	31839	32270	32651	33220	33538	34065	34313	34877	35305	35563	36142	36401	36792	37430	37675	38177	38668	39103	39323	39798	40357	40732	41146	41639	41925	42479	42865	68.62188506126404	0.81601881980896
13	55.562766790390015	stim	2		304.0	isi	64.0	./textures/oneOverF_texture_1_1024_9.bmp	358	806	1107	1673	2092	2576	2853	3263	3664	4206	4558	4860	5378	5818	6297	6758	7179	7572	7888	8320	8827	9253	9560	9913	10433	10841	11272	11633	12082	12514	13050	13429	13808	14245	14541	14979	15482	15898	16438	16735	17203	17493	18060	18341	18888	19305	19765	20093	20505	20991	21434	21678	22240	22519	22987	23459	23787	24369	24750	25255	25503	25948	26302	26794	27358	27682	27966	28424	28889	29353	29877	30286	30553	31137	31504	31839	32270	32651	33220	33538	34065	34313	34877	35305	35563	36142	36401	36792	37430	37675	38177	38668	39103	39323	39798	40357	40732	41146	41639	41925	42479	42865	69.437903881073	2.61811900138855
14	58.180885791778564	stim	0		80.0	dur	0.0	./textures/oneOverF_texture_1_1024_7.bmp	278	674	1106	1578	1963	2492	2888	3237	3668	4108	4542	4915	5447	5727	6249	6562	7028	7469	7961	8227	8743	9172	9552	10028	10453	10770	11382	11778	12031	12470	12872	13496	13860	14199	14545	14986	15556	15827	16208	16690	17118	17494	17920	18369	18722	19372	19736	20046	20556	20883	21340	21792	22242	22646	23089	23467	23987	24379	24729	25102	25539	25916	26286	26922	27229	27637	28092	28452	28916	29337	29856	30097	30631	31018	31497	31755	32281	32815	33090	33446	33933	34315	34708	35161	35733	36067	36428	36954	37234	37837	38124	38651	38918	39368	39897	40166	40785	41110	41507	41907	42396	42770	72.05602288246155	0.7162070274353027
14	58.89709281921387	stim	1		96.0	dur	0.0	./textures/oneOverF_texture_1_1024_7.bmp	278	674	1106	1578	1963	2492	2888	3237	3668	4108	4542	4915	5447	5727	6249	6562	7028	7469	7961	8227	8743	9172	9552	10028	10453	10770	11382	11778	12031	12470	12872	13496	13860	14199	14545	14986	15556	15827	16208	16690	17118	17494	17920	18369	18722	19372	19736	20046	20556	20883	21340	21792	22242	22646	23089	23467	23987	24379	24729	25102	25539	25916	26286	26922	27229	27637	28092	28452	28916	29337	29856	30097	30631	31018	31497	31755	32281	32815	33090	33446	33933	34315	34708	35161	35733	36067	36428	36954	37234	37837	38124	38651	38918	39368	39897	40166	40785	41110	41507	41907	42396	42770	72.77222990989685	0.8166801929473877
14	59.713773012161255	stim	2		304.0	dur	0.0	./textures/oneOverF_texture_1_1024_7.bmp	278	674	1106	1578	1963	2492	2888	3237	3668	4108	4542	4915	5447	5727	6249	6562	7028	7469	7961	8227	8743	9172	9552	10028	10453	10770	11382	11778	12031	12470	12872	13496	13860	14199	14545	14986	15556	15827	16208	16690	17118	17494	17920	18369	18722	19372	19736	20046	20556	20883	21340	21792	22242	22646	23089	23467	23987	24379	24729	25102	25539	25916	26286	26922	27229	27637	28092	28452	28916	29337	29856	30097	30631	31018	31497	31755	32281	32815	33090	33446	33933	34315	34708	35161	35733	36067	36428	36954	37234	37837	38124	38651	38918	39368	39897	40166	40785	41110	41507	41907	42396	42770	73.58891010284424	2.6170217990875244
15	62.33079481124878	stim	0		80.0	isi	2.0	./textures/oneOverF_texture_1_1024_0.bmp	418	708	1198	1721	1920	2432	2938	3402	3686	4035	4477	5056	5476	5900	6254	6755	7030	7551	8013	8282	8839	9120	9585	9968	10530	10766	11341	11730	12111	12600	12974	13283	13734	14276	14653	15124	15392	15994	16224	16758	17167	17624	18024	18428	18956	19164	19649	20073	20472	20891	21446	21717	22124	22713	23012	23384	23830	24273	24607	25225	25483	26025	26369	26751	27308	27542	27985	28536	28878	29283	29822	30197	30549	31041	31364	31848	32310	32735	33141	33445	33921	34431	34839	35270	35568	36123	36397	36943	37228	37799	38147	38650	38975	39327	39775	40320	40657	41030	41513	41966	42448	42714	76.20593190193176	0.7168149948120117
15	63.04760980606079	stim	1		96.0	isi	2.0	./textures/oneOverF_texture_1_1024_0.bmp	418	708	1198	1721	1920	2432	2938	3402	3686	4035	4477	5056	5476	5900	6254	6755	7030	7551	8013	8282	8839	9120	9585	9968	10530	10766	11341	11730	12111	12600	12974	13283	13734	14276	14653	15124	15392	15994	16224	16758	17167	17624	18024	18428	18956	19164	19649	20073	20472	20891	21446	21717	22124	22713	23012	23384	23830	24273	24607	25225	25483	26025	26369	26751	27308	27542	27985	28536	28878	29283	29822	30197	30549	31041	31364	31848	32310	32735	33141	33445	33921	34431	34839	35270	35568	36123	36397	36943	37228	37799	38147	38650	38975	39327	39775	40320	40657	41030	41513	41966	42448	42714	76.92274689674377	0.8501172065734863
15	63.89772701263428	stim	2		304.0	isi	2.0	./textures/oneOverF_texture_1_1024_0.bmp	418	708	1198	1721	1920	2432	2938	3402	3686	4035	4477	5056	5476	5900	6254	6755	7030	7551	8013	8282	8839	9120	9585	9968	10530	10766	11341	11730	12111	12600	12974	13283	13734	14276	14653	15124	15392	15994	16224	16758	17167	17624	18024	18428	18956	19164	19649	20073	20472	20891	21446	21717	22124	22713	23012	23384	23830	24273	24607	25225	25483	26025	26369	26751	27308	27542	27985	28536	28878	29283	29822	30197	30549	31041	31364	31848	32310	32735	33141	33445	33921	34431	34839	35270	35568	36123	36397	36943	37228	37799	38147	38650	38975	39327	39775	40320	40657	41030	41513	41966	42448	42714	77.77286410331726	2.617004871368408
16	66.51473188400269	stim	0		80.0	dur	4.0	./textures/oneOverF_texture_1_1024_3.bmp	411	888	1252	1581	1988	2426	2774	3194	3828	4256	4551	5083	5369	5914	6315	6744	7138	7456	7906	8420	8748	9118	9659	9970	10432	10962	11375	11728	12206	12469	12948	13312	13898	14259	14747	15079	15378	15823	16372	16729	17279	17485	18051	18339	18958	19187	19585	20215	20637	20998	21397	21881	22112	22503	23000	23440	23960	24258	24657	25209	25513	25921	26387	26871	27269	27686	28114	28557	28999	29325	29789	30071	30621	31000	31327	31747	32168	32765	33175	33475	33854	34428	34836	35100	35620	36111	36481	36839	37266	37681	38075	38507	38916	39436	39946	40163	40754	41162	41579	42031	42375	42728	80.38986897468567	0.6834371089935303
16	67.19816899299622	stim	1		96.0	dur	4.0	./textures/oneOverF_texture_1_1024_3.bmp	411	888	1252	1581	1988	2426	2774	3194	3828	4256	4551	5083	5369	5914	6315	6744	7138	7456	7906	8420	8748	9118	9659	9970	10432	10962	11375	11728	12206	12469	12948	13312	13898	14259	14747	15079	15378	15823	16372	16729	17279	17485	18051	18339	18958	19187	19585	20215	20637	20998	21397	21881	22112	22503	23000	23440	23960	24258	24657	25209	25513	25921	26387	26871	27269	27686	28114	28557	28999	29325	29789	30071	30621	31000	31327	31747	32168	32765	33175	33475	33854	34428	34836	35100	35620	36111	36481	36839	37266	37681	38075	38507	38916	39436	39946	40163	40754	41162	41579	42031	42375	42728	81.0733060836792	0.8501479625701904
16	68.0483169555664	stim	2		304.0	dur	4.0	./textures/oneOverF_texture_1_1024_3.bmp	411	888	1252	1581	1988	2426	2774	3194	3828	4256	4551	5083	5369	5914	6315	6744	7138	7456	7906	8420	8748	9118	9659	9970	10432	10962	11375	11728	12206	12469	12948	13312	13898	14259	14747	15079	15378	15823	16372	16729	17279	17485	18051	18339	18958	19187	19585	20215	20637	20998	21397	21881	22112	22503	23000	23440	23960	24258	24657	25209	25513	25921	26387	26871	27269	27686	28114	28557	28999	29325	29789	30071	30621	31000	31327	31747	32168	32765	33175	33475	33854	34428	34836	35100	35620	36111	36481	36839	37266	37681	38075	38507	38916	39436	39946	40163	40754	41162	41579	42031	42375	42728	81.92345404624939	2.608643054962158
17	70.65696001052856	stim	0		80.0	isi	8.0	./textures/oneOverF_texture_1_1024_4.bmp	425	752	1131	1662	2058	2522	2875	3289	3769	4119	4447	5057	5439	5781	6353	6724	6963	7394	7946	8295	8659	9150	9625	9938	10555	10926	11181	11591	12180	12542	13018	13369	13681	14323	14746	15062	15497	15962	16235	16847	17088	17474	17995	18433	18816	19332	19721	20184	20482	20859	21450	21688	22092	22683	23004	23370	23817	24290	24756	25206	25625	26080	26372	26811	27265	27545	28027	28592	28826	29422	29846	30245	30706	30981	31552	31869	32337	32682	33115	33462	33968	34342	34765	35288	35754	36034	36520	36820	37272	37698	38190	38615	38983	39332	39805	40219	40675	41109	41409	41897	42288	42867	84.53209710121155	0.6835010051727295
17	71.3404610157013	stim	1		96.0	isi	8.0	./textures/oneOverF_texture_1_1024_4.bmp	425	752	1131	1662	2058	2522	2875	3289	3769	4119	4447	5057	5439	5781	6353	6724	6963	7394	7946	8295	8659	9150	9625	9938	10555	10926	11181	11591	12180	12542	13018	13369	13681	14323	14746	15062	15497	15962	16235	16847	17088	17474	17995	18433	18816	19332	19721	20184	20482	20859	21450	21688	22092	22683	23004	23370	23817	24290	24756	25206	25625	26080	26372	26811	27265	27545	28027	28592	28826	29422	29846	30245	30706	30981	31552	31869	32337	32682	33115	33462	33968	34342	34765	35288	35754	36034	36520	36820	37272	37698	38190	38615	38983	39332	39805	40219	40675	41109	41409	41897	42288	42867	85.21559810638428	0.850071907043457
17	72.19053292274475	stim	2		304.0	isi	8.0	./textures/oneOverF_texture_1_1024_4.bmp	425	752	1131	1662	2058	2522	2875	3289	3769	4119	4447	5057	5439	5781	6353	6724	6963	7394	7946	8295	8659	9150	9625	9938	10555	10926	11181	11591	12180	12542	13018	13369	13681	14323	14746	15062	15497	15962	16235	16847	17088	17474	17995	18433	18816	19332	19721	20184	20482	20859	21450	21688	22092	22683	23004	23370	23817	24290	24756	25206	25625	26080	26372	26811	27265	27545	28027	28592	28826	29422	29846	30245	30706	30981	31552	31869	32337	32682	33115	33462	33968	34342	34765	35288	35754	36034	36520	36820	37272	37698	38190	38615	38983	39332	39805	40219	40675	41109	41409	41897	42288	42867	86.06567001342773	2.617090940475464
18	74.80762386322021	stim	0		80.0	dur	16.0	./textures/oneOverF_texture_1_1024_5.bmp	448	875	1298	1734	2151	2489	2810	3272	3711	4163	4493	5092	5505	5724	6136	6541	7189	7551	7866	8307	8642	9082	9704	10098	10516	10912	11357	11739	12079	12452	12995	13496	13755	14238	14724	15143	15534	15966	16318	16766	17163	17511	18062	18356	18785	19183	19795	20195	20617	21000	21346	21805	22090	22526	23128	23568	23888	24404	24744	25130	25576	25905	26464	26935	27300	27692	28174	28460	28955	29337	29794	30168	30563	30999	31551	31791	32364	32818	33098	33634	33903	34332	34753	35187	35719	36067	36481	36873	37333	37740	38144	38663	39046	39414	39780	40335	40786	40986	41556	41974	42471	42731	88.6827609539032	0.6834311485290527
18	75.49105501174927	stim	1		96.0	dur	16.0	./textures/oneOverF_texture_1_1024_5.bmp	448	875	1298	1734	2151	2489	2810	3272	3711	4163	4493	5092	5505	5724	6136	6541	7189	7551	7866	8307	8642	9082	9704	10098	10516	10912	11357	11739	12079	12452	12995	13496	13755	14238	14724	15143	15534	15966	16318	16766	17163	17511	18062	18356	18785	19183	19795	20195	20617	21000	21346	21805	22090	22526	23128	23568	23888	24404	24744	25130	25576	25905	26464	26935	27300	27692	28174	28460	28955	29337	29794	30168	30563	30999	31551	31791	32364	32818	33098	33634	33903	34332	34753	35187	35719	36067	36481	36873	37333	37740	38144	38663	39046	39414	39780	40335	40786	40986	41556	41974	42471	42731	89.36619210243225	0.8500759601593018
18	76.34113097190857	stim	2		304.0	dur	16.0	./textures/oneOverF_texture_1_1024_5.bmp	448	875	1298	1734	2151	2489	2810	3272	3711	4163	4493	5092	5505	5724	6136	6541	7189	7551	7866	8307	8642	9082	9704	10098	10516	10912	11357	11739	12079	12452	12995	13496	13755	14238	14724	15143	15534	15966	16318	16766	17163	17511	18062	18356	18785	19183	19795	20195	20617	21000	21346	21805	22090	22526	23128	23568	23888	24404	24744	25130	25576	25905	26464	26935	27300	27692	28174	28460	28955	29337	29794	30168	30563	30999	31551	31791	32364	32818	33098	33634	33903	34332	34753	35187	35719	36067	36481	36873	37333	37740	38144	38663	39046	39414	39780	40335	40786	40986	41556	41974	42471	42731	90.21626806259155	2.617020845413208
19	78.95815181732178	stim	0		80.0	isi	32.0	./textures/oneOverF_texture_1_1024_2.bmp	290	818	1237	1721	1977	2505	2881	3332	3764	4052	4669	4962	5314	5925	6244	6653	7156	7565	7841	8380	8817	9216	9668	9909	10422	10884	11370	11641	12056	12479	12992	13301	13727	14132	14687	15047	15550	15852	16431	16787	17145	17492	18037	18465	18891	19153	19684	20118	20490	20966	21461	21868	22274	22721	23155	23465	23924	24386	24773	25053	25632	25913	26338	26853	27182	27626	28076	28479	28957	29249	29774	30155	30684	31060	31532	31930	32195	32796	33019	33555	34079	34273	34827	35235	35609	35990	36499	36856	37355	37801	38193	38681	38904	39317	39951	40343	40797	41215	41410	41917	42412	42824	92.83328890800476	0.6834590435028076
19	79.64161086082458	stim	1		96.0	isi	32.0	./textures/oneOverF_texture_1_1024_2.bmp	290	818	1237	1721	1977	2505	2881	3332	3764	4052	4669	4962	5314	5925	6244	6653	7156	7565	7841	8380	8817	9216	9668	9909	10422	10884	11370	11641	12056	12479	12992	13301	13727	14132	14687	15047	15550	15852	16431	16787	17145	17492	18037	18465	18891	19153	19684	20118	20490	20966	21461	21868	22274	22721	23155	23465	23924	24386	24773	25053	25632	25913	26338	26853	27182	27626	28076	28479	28957	29249	29774	30155	30684	31060	31532	31930	32195	32796	33019	33555	34079	34273	34827	35235	35609	35990	36499	36856	37355	37801	38193	38681	38904	39317	39951	40343	40797	41215	41410	41917	42412	42824	93.51674795150757	0.8500990867614746
19	80.49170994758606	stim	2		304.0	isi	32.0	./textures/oneOverF_texture_1_1024_2.bmp	290	818	1237	1721	1977	2505	2881	3332	3764	4052	4669	4962	5314	5925	6244	6653	7156	7565	7841	8380	8817	9216	9668	9909	10422	10884	11370	11641	12056	12479	12992	13301	13727	14132	14687	15047	15550	15852	16431	16787	17145	17492	18037	18465	18891	19153	19684	20118	20490	20966	21461	21868	22274	22721	23155	23465	23924	24386	24773	25053	25632	25913	26338	26853	27182	27626	28076	28479	28957	29249	29774	30155	30684	31060	31532	31930	32195	32796	33019	33555	34079	34273	34827	35235	35609	35990	36499	36856	37355	37801	38193	38681	38904	39317	39951	40343	40797	41215	41410	41917	42412	42824	94.36684703826904	2.6170430183410645
20	83.10875296592712	stim	0		80.0	dur	64.0	./textures/oneOverF_texture_1_1024_1.bmp	347	716	1312	1709	2078	2431	2822	3192	3759	4071	4515	5004	5505	5736	6311	6604	7148	7499	7864	8278	8664	9259	9660	9935	10320	10751	11397	11683	12206	12495	12869	13385	13824	14151	14663	15095	15439	15843	16260	16780	17233	17523	18043	18467	18734	19283	19652	20118	20622	20937	21261	21700	22244	22567	23017	23545	23876	24234	24600	25168	25630	26043	26434	26880	27175	27590	27999	28558	28878	29294	29701	30208	30570	31135	31400	31975	32246	32586	33066	33540	33856	34476	34728	35168	35526	36088	36502	36975	37275	37715	38159	38653	39060	39438	39873	40147	40625	41055	41411	42035	42467	42836	96.98389005661011	0.716850996017456
20	83.82560396194458	stim	1		96.0	dur	64.0	./textures/oneOverF_texture_1_1024_1.bmp	347	716	1312	1709	2078	2431	2822	3192	3759	4071	4515	5004	5505	5736	6311	6604	7148	7499	7864	8278	8664	9259	9660	9935	10320	10751	11397	11683	12206	12495	12869	13385	13824	14151	14663	15095	15439	15843	16260	16780	17233	17523	18043	18467	18734	19283	19652	20118	20622	20937	21261	21700	22244	22567	23017	23545	23876	24234	24600	25168	25630	26043	26434	26880	27175	27590	27999	28558	28878	29294	29701	30208	30570	31135	31400	31975	32246	32586	33066	33540	33856	34476	34728	35168	35526	36088	36502	36975	37275	37715	38159	38653	39060	39438	39873	40147	40625	41055	41411	42035	42467	42836	97.70074105262756	0.8166940212249756
20	84.64229798316956	stim	2		304.0	dur	64.0	./textures/oneOverF_texture_1_1024_1.bmp	347	716	1312	1709	2078	2431	2822	3192	3759	4071	4515	5004	5505	5736	6311	6604	7148	7499	7864	8278	8664	9259	9660	9935	10320	10751	11397	11683	12206	12495	12869	13385	13824	14151	14663	15095	15439	15843	16260	16780	17233	17523	18043	18467	18734	19283	19652	20118	20622	20937	21261	21700	22244	22567	23017	23545	23876	24234	24600	25168	25630	26043	26434	26880	27175	27590	27999	28558	28878	29294	29701	30208	30570	31135	31400	31975	32246	32586	33066	33540	33856	34476	34728	35168	35526	36088	36502	36975	37275	37715	38159	38653	39060	39438	39873	40147	40625	41055	41411	42035	42467	42836	98.51743507385254	2.617086887359619
21	87.25938487052917	stim	0		80.0	isi	0.0	./textures/oneOverF_texture_1_1024_6.bmp	400	879	1241	1525	2140	2575	2952	3213	3688	4149	4651	5069	5479	5840	6186	6678	6963	7615	7874	8436	8740	9182	9685	10028	10527	10935	11367	11656	12166	12621	13035	13381	13902	14305	14640	15026	15421	15971	16290	16641	17059	17461	17892	18505	18757	19285	19570	20199	20623	21028	21380	21689	22264	22531	23118	23448	23908	24216	24759	25120	25517	25897	26501	26906	27195	27751	28157	28452	28984	29454	29727	30069	30522	31092	31431	31826	32222	32751	33052	33597	33914	34464	34850	35331	35702	35983	36393	36815	37207	37708	38049	38648	38882	39370	39872	40247	40719	41025	41413	42047	42365	42760	101.13452196121216	0.7167930603027344
21	87.97617793083191	stim	1		96.0	isi	0.0	./textures/oneOverF_texture_1_1024_6.bmp	400	879	1241	1525	2140	2575	2952	3213	3688	4149	4651	5069	5479	5840	6186	6678	6963	7615	7874	8436	8740	9182	9685	10028	10527	10935	11367	11656	12166	12621	13035	13381	13902	14305	14640	15026	15421	15971	16290	16641	17059	17461	17892	18505	18757	19285	19570	20199	20623	21028	21380	21689	22264	22531	23118	23448	23908	24216	24759	25120	25517	25897	26501	26906	27195	27751	28157	28452	28984	29454	29727	30069	30522	31092	31431	31826	32222	32751	33052	33597	33914	34464	34850	35331	35702	35983	36393	36815	37207	37708	38049	38648	38882	39370	39872	40247	40719	41025	41413	42047	42365	42760	101.85131502151489	0.8167178630828857
21	88.7928957939148	stim	2		304.0	isi	0.0	./textures/oneOverF_texture_1_1024_6.bmp	400	879	1241	1525	2140	2575	2952	3213	3688	4149	4651	5069	5479	5840	6186	6678	6963	7615	7874	8436	8740	9182	9685	10028	10527	10935	11367	11656	12166	12621	13035	13381	13902	14305	14640	15026	15421	15971	16290	16641	17059	17461	17892	18505	18757	19285	19570	20199	20623	21028	21380	21689	22264	22531	23118	23448	23908	24216	24759	25120	25517	25897	26501	26906	27195	27751	28157	28452	28984	29454	29727	30069	30522	31092	31431	31826	32222	32751	33052	33597	33914	34464	34850	35331	35702	35983	36393	36815	37207	37708	38049	38648	38882	39370	39872	40247	40719	41025	41413	42047	42365	42760	102.66803288459778	2.6170802116394043
22	91.4099760055542	stim	0		80.0	dur	2.0	./textures/oneOverF_texture_1_1024_8.bmp	315	663	1318	1662	1979	2432	2983	3226	3621	4228	4599	4982	5306	5726	6328	6738	7139	7597	7844	8436	8703	9113	9669	10091	10528	10757	11325	11765	12093	12615	13052	13384	13734	14213	14575	15043	15446	15807	16222	16676	17257	17620	17948	18504	18896	19224	19642	20154	20637	20997	21468	21849	22317	22695	23095	23516	23866	24247	24653	25190	25648	25964	26439	26757	27177	27576	28157	28610	28815	29288	29778	30200	30524	30956	31432	31763	32173	32689	33208	33653	34048	34470	34796	35163	35709	36063	36581	36849	37346	37702	38086	38603	38969	39437	39931	40309	40612	41172	41588	41959	42333	42875	105.28511309623718	0.7167789936065674
22	92.12675499916077	stim	1		96.0	dur	2.0	./textures/oneOverF_texture_1_1024_8.bmp	315	663	1318	1662	1979	2432	2983	3226	3621	4228	4599	4982	5306	5726	6328	6738	7139	7597	7844	8436	8703	9113	9669	10091	10528	10757	11325	11765	12093	12615	13052	13384	13734	14213	14575	15043	15446	15807	16222	16676	17257	17620	17948	18504	18896	19224	19642	20154	20637	20997	21468	21849	22317	22695	23095	23516	23866	24247	24653	25190	25648	25964	26439	26757	27177	27576	28157	28610	28815	29288	29778	30200	30524	30956	31432	31763	32173	32689	33208	33653	34048	34470	34796	35163	35709	36063	36581	36849	37346	37702	38086	38603	38969	39437	39931	40309	40612	41172	41588	41959	42333	42875	106.00189208984375	0.8167598247528076
22	92.94351482391357	stim	2		304.0	dur	2.0	./textures/oneOverF_texture_1_1024_8.bmp	315	663	1318	1662	1979	2432	2983	3226	3621	4228	4599	4982	5306	5726	6328	6738	7139	7597	7844	8436	8703	9113	9669	10091	10528	10757	11325	11765	12093	12615	13052	13384	13734	14213	14575	15043	15446	15807	16222	16676	17257	17620	17948	18504	18896	19224	19642	20154	20637	20997	21468	21849	22317	22695	23095	23516	23866	24247	24653	25190	25648	25964	26439	26757	27177	27576	28157	28610	28815	29288	29778	30200	30524	30956	31432	31763	32173	32689	33208	33653	34048	34470	34796	35163	35709	36063	36581	36849	37346	37702	38086	38603	38969	39437	39931	40309	40612	41172	41588	41959	42333	42875	106.81865191459656	2.6087310314178467
23	95.55224585533142	stim	0		80.0	isi	4.0	./textures/oneOverF_texture_1_1024_9.bmp	322	764	1256	1697	2114	2443	2813	3274	3723	4196	4536	4945	5463	5753	6186	6638	7071	7501	7802	8399	8799	9140	9521	10048	10476	10759	11284	11700	12095	12481	13075	13267	13889	14203	14662	15025	15512	15972	16380	16773	17068	17487	18043	18437	18810	19375	19583	20171	20407	20858	21348	21744	22256	22732	23159	23443	23760	24387	24681	25096	25606	25971	26482	26700	27193	27558	28160	28551	28869	29232	29665	30248	30530	31036	31342	31780	32206	32763	33181	33460	34022	34380	34680	35230	35692	36124	36550	36946	37215	37839	38087	38498	39018	39476	39947	40223	40684	41065	41459	42010	42402	42753	109.4273829460144	0.7167949676513672
23	96.26904082298279	stim	1		96.0	isi	4.0	./textures/oneOverF_texture_1_1024_9.bmp	322	764	1256	1697	2114	2443	2813	3274	3723	4196	4536	4945	5463	5753	6186	6638	7071	7501	7802	8399	8799	9140	9521	10048	10476	10759	11284	11700	12095	12481	13075	13267	13889	14203	14662	15025	15512	15972	16380	16773	17068	17487	18043	18437	18810	19375	19583	20171	20407	20858	21348	21744	22256	22732	23159	23443	23760	24387	24681	25096	25606	25971	26482	26700	27193	27558	28160	28551	28869	29232	29665	30248	30530	31036	31342	31780	32206	32763	33181	33460	34022	34380	34680	35230	35692	36124	36550	36946	37215	37839	38087	38498	39018	39476	39947	40223	40684	41065	41459	42010	42402	42753	110.14417791366577	0.8500990867614746
23	97.11913990974426	stim	2		304.0	isi	4.0	./textures/oneOverF_texture_1_1024_9.bmp	322	764	1256	1697	2114	2443	2813	3274	3723	4196	4536	4945	5463	5753	6186	6638	7071	7501	7802	8399	8799	9140	9521	10048	10476	10759	11284	11700	12095	12481	13075	13267	13889	14203	14662	15025	15512	15972	16380	16773	17068	17487	18043	18437	18810	19375	19583	20171	20407	20858	21348	21744	22256	22732	23159	23443	23760	24387	24681	25096	25606	25971	26482	26700	27193	27558	28160	28551	28869	29232	29665	30248	30530	31036	31342	31780	32206	32763	33181	33460	34022	34380	34680	35230	35692	36124	36550	36946	37215	37839	38087	38498	39018	39476	39947	40223	40684	41065	41459	42010	42402	42753	110.99427700042725	2.5837221145629883
24	99.70286202430725	stim	0		80.0	dur	8.0	./textures/oneOverF_texture_1_1024_7.bmp	393	729	1089	1508	2065	2434	2893	3258	3652	4124	4636	4916	5287	5754	6290	6546	7193	7514	7945	8456	8857	9154	9529	10043	10480	10961	11260	11635	12188	12611	13004	13351	13919	14321	14574	14975	15410	15940	16361	16644	17238	17471	18076	18454	18748	19216	19791	20219	20452	20994	21251	21883	22189	22612	22926	23378	23870	24285	24615	25189	25648	26071	26384	26792	27130	27627	28043	28458	28830	29347	29830	30096	30670	30953	31459	31871	32351	32642	33103	33519	33931	34474	34752	35260	35678	36020	36376	36824	37282	37836	38213	38545	39015	39410	39840	40263	40615	41217	41420	41979	42326	42898	113.57799911499023	0.7167508602142334
24	100.41961288452148	stim	1		96.0	dur	8.0	./textures/oneOverF_texture_1_1024_7.bmp	393	729	1089	1508	2065	2434	2893	3258	3652	4124	4636	4916	5287	5754	6290	6546	7193	7514	7945	8456	8857	9154	9529	10043	10480	10961	11260	11635	12188	12611	13004	13351	13919	14321	14574	14975	15410	15940	16361	16644	17238	17471	18076	18454	18748	19216	19791	20219	20452	20994	21251	21883	22189	22612	22926	23378	23870	24285	24615	25189	25648	26071	26384	26792	27130	27627	28043	28458	28830	29347	29830	30096	30670	30953	31459	31871	32351	32642	33103	33519	33931	34474	34752	35260	35678	36020	36376	36824	37282	37836	38213	38545	39015	39410	39840	40263	40615	41217	41420	41979	42326	42898	114.29474997520447	0.8502590656280518
24	101.26987195014954	stim	2		304.0	dur	8.0	./textures/oneOverF_texture_1_1024_7.bmp	393	729	1089	1508	2065	2434	2893	3258	3652	4124	4636	4916	5287	5754	6290	6546	7193	7514	7945	8456	8857	9154	9529	10043	10480	10961	11260	11635	12188	12611	13004	13351	13919	14321	14574	14975	15410	15940	16361	16644	17238	17471	18076	18454	18748	19216	19791	20219	20452	20994	21251	21883	22189	22612	22926	23378	23870	24285	24615	25189	25648	26071	26384	26792	27130	27627	28043	28458	28830	29347	29830	30096	30670	30953	31459	31871	32351	32642	33103	33519	33931	34474	34752	35260	35678	36020	36376	36824	37282	37836	38213	38545	39015	39410	39840	40263	40615	41217	41420	41979	42326	42898	115.14500904083252	2.6168980598449707
25	103.8867700099945	stim	0		80.0	isi	16.0	./textures/oneOverF_texture_1_1024_0.bmp	471	677	1262	1636	2156	2449	2919	3233	3796	4239	4451	4924	5359	5749	6349	6616	7186	7554	7957	8304	8744	9195	9637	9941	10351	10979	11393	11588	12107	12508	12962	13460	13843	14189	14630	15014	15445	15893	16334	16699	17132	17673	18115	18490	18940	19365	19712	20133	20450	20828	21372	21837	22117	22615	23147	23532	23775	24369	24606	25139	25579	25955	26488	26811	27164	27726	28198	28592	28915	29298	29658	30282	30710	31016	31346	31765	32191	32644	33083	33644	33884	34472	34907	35334	35612	36115	36406	36816	37232	37720	38175	38515	38969	39491	39946	40335	40604	41144	41401	42059	42253	42708	117.76190710067749	0.6834797859191895
25	104.5702497959137	stim	1		96.0	isi	16.0	./textures/oneOverF_texture_1_1024_0.bmp	471	677	1262	1636	2156	2449	2919	3233	3796	4239	4451	4924	5359	5749	6349	6616	7186	7554	7957	8304	8744	9195	9637	9941	10351	10979	11393	11588	12107	12508	12962	13460	13843	14189	14630	15014	15445	15893	16334	16699	17132	17673	18115	18490	18940	19365	19712	20133	20450	20828	21372	21837	22117	22615	23147	23532	23775	24369	24606	25139	25579	25955	26488	26811	27164	27726	28198	28592	28915	29298	29658	30282	30710	31016	31346	31765	32191	32644	33083	33644	33884	34472	34907	35334	35612	36115	36406	36816	37232	37720	38175	38515	38969	39491	39946	40335	40604	41144	41401	42059	42253	42708	118.44538688659668	0.8500251770019531
25	105.42027497291565	stim	2		304.0	isi	16.0	./textures/oneOverF_texture_1_1024_0.bmp	471	677	1262	1636	2156	2449	2919	3233	3796	4239	4451	4924	5359	5749	6349	6616	7186	7554	7957	8304	8744	9195	9637	9941	10351	10979	11393	11588	12107	12508	12962	13460	13843	14189	14630	15014	15445	15893	16334	16699	17132	17673	18115	18490	18940	19365	19712	20133	20450	20828	21372	21837	22117	22615	23147	23532	23775	24369	24606	25139	25579	25955	26488	26811	27164	27726	28198	28592	28915	29298	29658	30282	30710	31016	31346	31765	32191	32644	33083	33644	33884	34472	34907	35334	35612	36115	36406	36816	37232	37720	38175	38515	38969	39491	39946	40335	40604	41144	41401	42059	42253	42708	119.29541206359863	2.6170549392700195
26	108.03732991218567	stim	0		80.0	dur	32.0	./textures/oneOverF_texture_1_1024_3.bmp	412	672	1125	1558	1928	2438	2850	3200	3640	4091	4440	5022	5290	5791	6146	6541	7115	7552	7811	8379	8709	9280	9622	9936	10396	10904	11254	11807	12048	12590	12907	13385	13838	14274	14688	14984	15413	15788	16386	16626	17187	17597	17991	18503	18848	19167	19569	20215	20567	20905	21281	21801	22138	22656	23121	23443	23911	24185	24673	25062	25564	26050	26353	26707	27204	27698	28043	28613	28932	29374	29827	30172	30675	31025	31549	31873	32255	32659	33189	33456	34044	34382	34804	35163	35626	35948	36545	36826	37232	37763	38193	38588	38954	39413	39957	40308	40752	41055	41602	41847	42356	42665	121.91246700286865	0.6834568977355957
26	108.72078680992126	stim	1		96.0	dur	32.0	./textures/oneOverF_texture_1_1024_3.bmp	412	672	1125	1558	1928	2438	2850	3200	3640	4091	4440	5022	5290	5791	6146	6541	7115	7552	7811	8379	8709	9280	9622	9936	10396	10904	11254	11807	12048	12590	12907	13385	13838	14274	14688	14984	15413	15788	16386	16626	17187	17597	17991	18503	18848	19167	19569	20215	20567	20905	21281	21801	22138	22656	23121	23443	23911	24185	24673	25062	25564	26050	26353	26707	27204	27698	28043	28613	28932	29374	29827	30172	30675	31025	31549	31873	32255	32659	33189	33456	34044	34382	34804	35163	35626	35948	36545	36826	37232	37763	38193	38588	38954	39413	39957	40308	40752	41055	41602	41847	42356	42665	122.59592390060425	0.850100040435791
26	109.57088685035706	stim	2		304.0	dur	32.0	./textures/oneOverF_texture_1_1024_3.bmp	412	672	1125	1558	1928	2438	2850	3200	3640	4091	4440	5022	5290	5791	6146	6541	7115	7552	7811	8379	8709	9280	9622	9936	10396	10904	11254	11807	12048	12590	12907	13385	13838	14274	14688	14984	15413	15788	16386	16626	17187	17597	17991	18503	18848	19167	19569	20215	20567	20905	21281	21801	22138	22656	23121	23443	23911	24185	24673	25062	25564	26050	26353	26707	27204	27698	28043	28613	28932	29374	29827	30172	30675	31025	31549	31873	32255	32659	33189	33456	34044	34382	34804	35163	35626	35948	36545	36826	37232	37763	38193	38588	38954	39413	39957	40308	40752	41055	41602	41847	42356	42665	123.44602394104004	2.63358998298645
26	110.3902838230133	pulse	2	t		dur	32.0	./textures/oneOverF_texture_1_1024_3.bmp	412	672	1125	1558	1928	2438	2850	3200	3640	4091	4440	5022	5290	5791	6146	6541	7115	7552	7811	8379	8709	9280	9622	9936	10396	10904	11254	11807	12048	12590	12907	13385	13838	14274	14688	14984	15413	15788	16386	16626	17187	17597	17991	18503	18848	19167	19569	20215	20567	20905	21281	21801	22138	22656	23121	23443	23911	24185	24673	25062	25564	26050	26353	26707	27204	27698	28043	28613	28932	29374	29827	30172	30675	31025	31549	31873	32255	32659	33189	33456	34044	34382	34804	35163	35626	35948	36545	36826	37232	37763	38193	38588	38954	39413	39957	40308	40752	41055	41602	41847	42356	42665	124.26542091369629	
27	112.2044768333435	stim	0		80.0	isi	64.0	./textures/oneOverF_texture_1_1024_4.bmp	451	716	1271	1507	2008	2392	2800	3399	3797	4059	4509	5008	5298	5929	6145	6751	7145	7429	7890	8449	8825	9165	9513	10090	10416	10867	11160	11732	12115	12447	12962	13361	13740	14293	14718	15141	15360	15996	16279	16755	17239	17582	18071	18385	18943	19170	19797	20060	20568	20847	21342	21770	22285	22710	23065	23340	23802	24364	24816	25035	25608	25908	26305	26828	27149	27594	28199	28614	28968	29255	29693	30202	30498	30973	31349	31970	32325	32601	33144	33586	33852	34495	34861	35132	35665	36033	36379	37012	37270	37679	38079	38580	39113	39358	39916	40173	40628	41133	41586	41896	42439	42717	126.07961392402649	0.6839239597320557
27	112.88840079307556	stim	1		96.0	isi	64.0	./textures/oneOverF_texture_1_1024_4.bmp	451	716	1271	1507	2008	2392	2800	3399	3797	4059	4509	5008	5298	5929	6145	6751	7145	7429	7890	8449	8825	9165	9513	10090	10416	10867	11160	11732	12115	12447	12962	13361	13740	14293	14718	15141	15360	15996	16279	16755	17239	17582	18071	18385	18943	19170	19797	20060	20568	20847	21342	21770	22285	22710	23065	23340	23802	24364	24816	25035	25608	25908	26305	26828	27149	27594	28199	28614	28968	29255	29693	30202	30498	30973	31349	31970	32325	32601	33144	33586	33852	34495	34861	35132	35665	36033	36379	37012	37270	37679	38079	38580	39113	39358	39916	40173	40628	41133	41586	41896	42439	42717	126.76353788375854	0.8571970462799072
27	113.74559783935547	stim	2		158.0	isi	64.0	./textures/oneOverF_texture_1_1024_4.bmp	451	716	1271	1507	2008	2392	2800	3399	3797	4059	4509	5008	5298	5929	6145	6751	7145	7429	7890	8449	8825	9165	9513	10090	10416	10867	11160	11732	12115	12447	12962	13361	13740	14293	14718	15141	15360	15996	16279	16755	17239	17582	18071	18385	18943	19170	19797	20060	20568	20847	21342	21770	22285	22710	23065	23340	23802	24364	24816	25035	25608	25908	26305	26828	27149	27594	28199	28614	28968	29255	29693	30202	30498	30973	31349	31970	32325	32601	33144	33586	33852	34495	34861	35132	35665	36033	36379	37012	37270	37679	38079	38580	39113	39358	39916	40173	40628	41133	41586	41896	42439	42717	127.62073493003845	1.3752551078796387
