trial_nr	onset	event_type	phase	response	nr_frames	subject	block	signal_present	signal_orientation	signal_opacity	correct	miniblock	blinkDuringTrial	RT	trial	confidence	key	RT_   0	onset_abs	duration
0	0.03330588340759277	blockStart	0	-1	278	99	0.0	0.0	0.0	0.0	-1.0	0.0	0.0	-1.0	0.0	-1.0			5.626088857650757	4.636943101882935
0	4.670248985290527	baseline_window	1	-1	90	99	0.0	0.0	0.0	0.0	-1.0	0.0	0.0	-1.0	0.0	-1.0			10.263031959533691	1.5011789798736572
0	6.171427965164185	stimulus_window	2	-1	12	99	0.0	0.0	0.0	0.0	-1.0	0.0	0.0	-1.0	0.0	-1.0			11.764210939407349	0.20002388954162598
0	6.3714518547058105	response_window	3	-1	72	99	0.0	0.0	0.0	0.0	-1.0	0.0	0.0	-1.0	0.0	-1.0			11.964234828948975	1.2006609439849854
0	7.572112798690796	feedback_window	4	-1	18	99	0.0	0.0	0.0	0.0	-1.0	0.0	0.0	-1.0	0.0	-1.0			13.16489577293396	0.3005211353302002
0	7.872633934020996	ITI_window	5	-1	39	99	0.0	0.0	0.0	0.0	-1.0	0.0	0.0	-1.0	0.0	-1.0			13.46541690826416	0.6500558853149414
1	8.522689819335938	blockStart	0	-1	0	99	0.0	0.0	0.0	0.0	-1.0	0.0	0.0	-1.0	1.0	-1.0			14.115472793579102	0.003947019577026367
1	8.526636838912964	baseline_window	1	-1	29	99	0.0	0.0	0.0	0.0	-1.0	0.0	0.0	-1.0	1.0	-1.0			14.119419813156128	0.48027610778808594
1	9.00691294670105	stimulus_window	2	-1	12	99	0.0	0.0	0.0	0.0	-1.0	0.0	0.0	-1.0	1.0	-1.0			14.599695920944214	0.20003795623779297
1	9.206950902938843	response_window	3	-1	57	99	0.0	0.0	0.0	0.0	-1.0	0.0	0.0	-1.0	1.0	-1.0			14.799733877182007	0.9505710601806641
1	10.129918813705444	response	3	0	57						1.0			1.1230058670043945		1.0	a		15.722701787948608	
1	10.157521963119507	feedback_window	4	0	19	99	0.0	0.0	0.0	0.0	1.0	0.0	0.0		1.0	1.0		1.1230058670043945	15.750304937362671	0.31725287437438965
1	10.474774837493896	ITI_window	5	0	46	99	0.0	0.0	0.0	0.0	1.0	0.0	0.0		1.0	1.0		1.1230058670043945	16.06755781173706	0.7668960094451904
2	11.241670846939087	blockStart	0	-1	0	99	0.0	0.0	1.0	0.0	-1.0	0.0	0.0	-1.0	2.0	-1.0			16.83445382118225	0.004045009613037109
2	11.245715856552124	baseline_window	1	-1	29	99	0.0	0.0	1.0	0.0	-1.0	0.0	0.0	-1.0	2.0	-1.0			16.838498830795288	0.47975802421569824
2	11.725473880767822	stimulus_window	2	-1	12	99	0.0	0.0	1.0	0.0	-1.0	0.0	0.0	-1.0	2.0	-1.0			17.318256855010986	0.1997981071472168
2	11.925271987915039	response_window	3	-1	50	99	0.0	0.0	1.0	0.0	-1.0	0.0	0.0	-1.0	2.0	-1.0			17.518054962158203	0.8342869281768799
2	12.732363939285278	response	3	1	50						0.0			1.006890058517456		1.0	l		18.325146913528442	
2	12.759558916091919	feedback_window	4	1	19	99	0.0	0.0	1.0	0.0	0.0	0.0	0.0	1.006890058517456	2.0	1.0			18.352341890335083	0.317080020904541
2	13.07663893699646	ITI_window	5	1	49	99	0.0	0.0	1.0	0.0	0.0	0.0	0.0	1.006890058517456	2.0	1.0			18.669421911239624	0.8169419765472412
3	13.893580913543701	blockStart	0	-1	0	99	0.0	0.0	1.0	0.0	-1.0	0.0	0.0	-1.0	3.0	-1.0			19.486363887786865	0.003885984420776367
3	13.897466897964478	baseline_window	1	-1	29	99	0.0	0.0	1.0	0.0	-1.0	0.0	0.0	-1.0	3.0	-1.0			19.49024987220764	0.47991394996643066
3	14.377380847930908	stimulus_window	2	-1	12	99	0.0	0.0	1.0	0.0	-1.0	0.0	0.0	-1.0	3.0	-1.0			19.970163822174072	0.20000195503234863
3	14.577382802963257	response_window	3	-1	48	99	0.0	0.0	1.0	0.0	-1.0	0.0	0.0	-1.0	3.0	-1.0			20.17016577720642	0.8008131980895996
3	15.350697994232178	response	3	0	48						1.0			0.9733171463012695		1.0	a		20.943480968475342	
3	15.378196001052856	feedback_window	4	0	19	99	0.0	0.0	1.0	0.0	1.0	0.0	0.0		3.0	1.0		0.9733171463012695	20.97097897529602	0.317065954208374
3	15.69526195526123	ITI_window	5	0	38	99	0.0	0.0	1.0	0.0	1.0	0.0	0.0		3.0	1.0		0.9733171463012695	21.288044929504395	0.6334538459777832
4	16.328715801239014	blockStart	0	-1	0	99	0.0	1.0	0.0	0.010000000000000002	-1.0	0.0	0.0	-1.0	4.0	-1.0			21.921498775482178	0.004228115081787109
4	16.3329439163208	baseline_window	1	-1	30	99	0.0	1.0	0.0	0.010000000000000002	-1.0	0.0	0.0	-1.0	4.0	-1.0			21.925726890563965	0.49631810188293457
4	16.829262018203735	stimulus_window	2	-1	11	99	0.0	1.0	0.0	0.010000000000000002	-1.0	0.0	0.0	-1.0	4.0	-1.0			22.4220449924469	0.1998758316040039
4	17.02913784980774	response_window	3	-1	38	99	0.0	1.0	0.0	0.010000000000000002	-1.0	0.0	0.0	-1.0	4.0	-1.0			22.621920824050903	0.634160041809082
4	17.635828971862793	response	3	0	38						0.0			0.8065669536590576		0.0	s		23.228611946105957	
4	17.66329789161682	feedback_window	4	0	19	99	0.0	1.0	0.0	0.010000000000000002	0.0	0.0	0.0	0.8065669536590576	4.0	0.0			23.256080865859985	0.31688904762268066
4	17.980186939239502	ITI_window	5	0	38	99	0.0	1.0	0.0	0.010000000000000002	0.0	0.0	0.0	0.8065669536590576	4.0	0.0			23.572969913482666	0.6337120532989502
5	18.613898992538452	blockStart	0	-1	0	99	0.0	0.0	1.0	0.0	-1.0	0.0	0.0	-1.0	5.0	-1.0			24.206681966781616	0.004109859466552734
5	18.618008852005005	baseline_window	1	-1	30	99	0.0	0.0	1.0	0.0	-1.0	0.0	0.0	-1.0	5.0	-1.0			24.21079182624817	0.4959831237792969
5	19.1139919757843	stimulus_window	2	-1	12	99	0.0	0.0	1.0	0.0	-1.0	0.0	0.0	-1.0	5.0	-1.0			24.706774950027466	0.2004868984222412
5	19.314478874206543	response_window	3	-1	9	99	0.0	0.0	1.0	0.0	-1.0	0.0	0.0	-1.0	5.0	-1.0			24.907261848449707	0.1500239372253418
5	19.437553882598877	response	3	0	9						1.0			0.3235619068145752		1.0	a		25.03033685684204	
5	19.464502811431885	feedback_window	4	0	19	99	0.0	0.0	1.0	0.0	1.0	0.0	0.0		5.0	1.0		0.3235619068145752	25.05728578567505	0.3170900344848633
5	19.781592845916748	ITI_window	5	0	51	99	0.0	0.0	1.0	0.0	1.0	0.0	0.0		5.0	1.0		0.3235619068145752	25.374375820159912	0.8506109714508057
6	20.632203817367554	blockStart	0	-1	0	99	0.0	1.0	1.0	0.015000000000000003	-1.0	0.0	0.0	-1.0	6.0	-1.0			26.224986791610718	0.003720998764038086
6	20.635924816131592	baseline_window	1	-1	29	99	0.0	1.0	1.0	0.015000000000000003	-1.0	0.0	0.0	-1.0	6.0	-1.0			26.228707790374756	0.4798870086669922
6	21.115811824798584	stimulus_window	2	-1	12	99	0.0	1.0	1.0	0.015000000000000003	-1.0	0.0	0.0	-1.0	6.0	-1.0			26.708594799041748	0.20046019554138184
6	21.316272020339966	response_window	3	-1	8	99	0.0	1.0	1.0	0.015000000000000003	-1.0	0.0	0.0	-1.0	6.0	-1.0			26.90905499458313	0.13307785987854004
6	21.42205286026001	response	3	0	8						0.0			0.3062410354614258		0.0	s		27.014835834503174	
6	21.449349880218506	feedback_window	4	0	19	99	0.0	1.0	1.0	0.015000000000000003	0.0	0.0	0.0	0.3062410354614258	6.0	0.0			27.04213285446167	0.3169119358062744
6	21.76626181602478	ITI_window	5	0	39	99	0.0	1.0	1.0	0.015000000000000003	0.0	0.0	0.0	0.3062410354614258	6.0	0.0			27.359044790267944	0.6503431797027588
7	22.41660499572754	blockStart	0	-1	0	99	0.0	1.0	1.0	0.030000000000000006	-1.0	0.0	0.0	-1.0	7.0	-1.0			28.009387969970703	0.004297971725463867
7	22.420902967453003	baseline_window	1	-1	29	99	0.0	1.0	1.0	0.030000000000000006	-1.0	0.0	0.0	-1.0	7.0	-1.0			28.013685941696167	0.4796178340911865
7	22.90052080154419	stimulus_window	2	-1	12	99	0.0	1.0	1.0	0.030000000000000006	-1.0	0.0	0.0	-1.0	7.0	-1.0			28.493303775787354	0.2002110481262207
7	23.10073184967041	response_window	3	-1	24	99	0.0	1.0	1.0	0.030000000000000006	-1.0	0.0	0.0	-1.0	7.0	-1.0			28.693514823913574	0.40006208419799805
7	23.47365093231201	response	3	0	24						0.0			0.5731301307678223		0.0	s		29.066433906555176	
7	23.500793933868408	feedback_window	4	0	19	99	0.0	1.0	1.0	0.030000000000000006	0.0	0.0	0.0	0.5731301307678223	7.0	0.0			29.093576908111572	0.3170778751373291
7	23.817871809005737	ITI_window	5	0	59	99	0.0	1.0	1.0	0.030000000000000006	0.0	0.0	0.0	0.5731301307678223	7.0	0.0			29.4106547832489	0.9840559959411621
8	24.8019278049469	blockStart	0	-1	0	99	0.0	0.0	0.0	0.0	-1.0	0.0	0.0	-1.0	8.0	-1.0			30.394710779190063	0.003954172134399414
8	24.8058819770813	baseline_window	1	-1	30	99	0.0	0.0	0.0	0.0	-1.0	0.0	0.0	-1.0	8.0	-1.0			30.398664951324463	0.4965529441833496
8	25.30243492126465	stimulus_window	2	-1	12	99	0.0	0.0	0.0	0.0	-1.0	0.0	0.0	-1.0	8.0	-1.0			30.895217895507812	0.20013689994812012
8	25.50257182121277	response_window	3	-1	6	99	0.0	0.0	0.0	0.0	-1.0	0.0	0.0	-1.0	8.0	-1.0			31.095354795455933	0.09995102882385254
8	25.575018882751465	response	3	0	6						1.0			0.2725839614868164		1.0	a		31.16780185699463	
8	25.60252285003662	feedback_window	4	0	19	99	0.0	0.0	0.0	0.0	1.0	0.0	0.0		8.0	1.0		0.2725839614868164	31.195305824279785	0.31703901290893555
8	25.919561862945557	ITI_window	5	0	46	99	0.0	0.0	0.0	0.0	1.0	0.0	0.0		8.0	1.0		0.2725839614868164	31.51234483718872	0.7668149471282959
9	26.686376810073853	blockStart	0	-1	0	99	0.0	1.0	1.0	0.030000000000000006	-1.0	0.0	0.0	-1.0	9.0	-1.0			32.27915978431702	0.0037779808044433594
9	26.690154790878296	baseline_window	1	-1	29	99	0.0	1.0	1.0	0.030000000000000006	-1.0	0.0	0.0	-1.0	9.0	-1.0			32.28293776512146	0.48037004470825195
9	27.170524835586548	stimulus_window	2	-1	12	99	0.0	1.0	1.0	0.030000000000000006	-1.0	0.0	0.0	-1.0	9.0	-1.0			32.76330780982971	0.2001481056213379
9	27.370672941207886	response_window	3	-1	8	99	0.0	1.0	1.0	0.030000000000000006	-1.0	0.0	0.0	-1.0	9.0	-1.0			32.96345591545105	0.13338184356689453
9	27.476691007614136	response	3	0	8						0.0			0.3061661720275879		1.0	a		33.0694739818573	
9	27.50405478477478	feedback_window	4	0	19	99	0.0	1.0	1.0	0.030000000000000006	0.0	0.0	0.0		9.0	1.0		0.3061661720275879	33.096837759017944	0.31674909591674805
9	27.82080388069153	ITI_window	5	0	59	99	0.0	1.0	1.0	0.030000000000000006	0.0	0.0	0.0		9.0	1.0		0.3061661720275879	33.41358685493469	0.9838049411773682
10	28.804608821868896	blockStart	0	-1	0	99	0.0	1.0	0.0	0.005	-1.0	0.0	0.0	-1.0	10.0	-1.0			34.39739179611206	0.003345966339111328
10	28.807954788208008	baseline_window	1	-1	29	99	0.0	1.0	0.0	0.005	-1.0	0.0	0.0	-1.0	10.0	-1.0			34.40073776245117	0.4806392192840576
10	29.288594007492065	stimulus_window	2	-1	12	99	0.0	1.0	0.0	0.005	-1.0	0.0	0.0	-1.0	10.0	-1.0			34.88137698173523	0.2000579833984375
10	29.488651990890503	response_window	3	-1	13	99	0.0	1.0	0.0	0.005	-1.0	0.0	0.0	-1.0	10.0	-1.0			35.08143496513367	0.21684885025024414
10	29.678090810775757	response	3	0	13						0.0			0.3894968032836914		0.0	s		35.27087378501892	
10	29.705500841140747	feedback_window	4	0	19	99	0.0	1.0	0.0	0.005	0.0	0.0	0.0	0.3894968032836914	10.0	0.0			35.29828381538391	0.31708312034606934
10	30.022583961486816	ITI_window	5	0	36	99	0.0	1.0	0.0	0.005	0.0	0.0	0.0	0.3894968032836914	10.0	0.0			35.61536693572998	0.6007289886474609
11	30.623312950134277	blockStart	0	-1	0	99	0.0	1.0	1.0	0.015000000000000003	-1.0	0.0	0.0	-1.0	11.0	-1.0			36.21609592437744	0.005169868469238281
11	30.628482818603516	baseline_window	1	-1	29	99	0.0	1.0	1.0	0.015000000000000003	-1.0	0.0	0.0	-1.0	11.0	-1.0			36.22126579284668	0.4782860279083252
11	31.10676884651184	stimulus_window	2	-1	12	99	0.0	1.0	1.0	0.015000000000000003	-1.0	0.0	0.0	-1.0	11.0	-1.0			36.699551820755005	0.19979405403137207
11	31.306562900543213	response_window	3	-1	72	99	0.0	1.0	1.0	0.015000000000000003	-1.0	0.0	0.0	-1.0	11.0	-1.0			36.89934587478638	1.201225996017456
11	32.50778889656067	feedback_window	4	-1	18	99	0.0	1.0	1.0	0.015000000000000003	-1.0	0.0	0.0	-1.0	11.0	-1.0			38.10057187080383	0.30007004737854004
11	32.80785894393921	ITI_window	5	-1	42	99	0.0	1.0	1.0	0.015000000000000003	-1.0	0.0	0.0	-1.0	11.0	-1.0			38.40064191818237	0.7003610134124756
12	33.508219957351685	blockStart	0	-1	0	99	0.0	1.0	1.0	0.020000000000000004	-1.0	0.0	0.0	-1.0	12.0	-1.0			39.10100293159485	0.003696918487548828
12	33.51191687583923	baseline_window	1	-1	29	99	0.0	1.0	1.0	0.020000000000000004	-1.0	0.0	0.0	-1.0	12.0	-1.0			39.1046998500824	0.4799621105194092
12	33.99187898635864	stimulus_window	2	-1	12	99	0.0	1.0	1.0	0.020000000000000004	-1.0	0.0	0.0	-1.0	12.0	-1.0			39.58466196060181	0.2000718116760254
12	34.19195079803467	response_window	3	-1	72	99	0.0	1.0	1.0	0.020000000000000004	-1.0	0.0	0.0	-1.0	12.0	-1.0			39.78473377227783	1.2011229991912842
12	35.39307379722595	feedback_window	4	-1	18	99	0.0	1.0	1.0	0.020000000000000004	-1.0	0.0	0.0	-1.0	12.0	-1.0			40.985856771469116	0.30045008659362793
12	35.69352388381958	ITI_window	5	-1	52	99	0.0	1.0	1.0	0.020000000000000004	-1.0	0.0	0.0	-1.0	12.0	-1.0			41.286306858062744	0.8670680522918701
13	36.56059193611145	blockStart	0	-1	0	99	0.0	1.0	1.0	0.05	-1.0	0.0	0.0	-1.0	13.0	-1.0			42.153374910354614	0.005303859710693359
13	36.565895795822144	baseline_window	1	-1	30	99	0.0	1.0	1.0	0.05	-1.0	0.0	0.0	-1.0	13.0	-1.0			42.15867877006531	0.49530601501464844
13	37.06120181083679	stimulus_window	2	-1	12	99	0.0	1.0	1.0	0.05	-1.0	0.0	0.0	-1.0	13.0	-1.0			42.653984785079956	0.20011019706726074
13	37.26131200790405	response_window	3	-1	6	99	0.0	1.0	1.0	0.05	-1.0	0.0	0.0	-1.0	13.0	-1.0			42.85409498214722	0.09987688064575195
13	37.33361887931824	response	3	0	6						0.0			0.2724170684814453		0.0	s		42.9264018535614	
13	37.361188888549805	feedback_window	4	0	19	99	0.0	1.0	1.0	0.05	0.0	0.0	0.0	0.2724170684814453	13.0	0.0			42.95397186279297	0.3172149658203125
13	37.67840385437012	ITI_window	5	0	43	99	0.0	1.0	1.0	0.05	0.0	0.0	0.0	0.2724170684814453	13.0	0.0			43.27118682861328	0.7166781425476074
14	38.395081996917725	blockStart	0	-1	0	99	0.0	0.0	0.0	0.0	-1.0	0.0	0.0	-1.0	14.0	-1.0			43.98786497116089	0.003000020980834961
14	38.39808201789856	baseline_window	1	-1	30	99	0.0	0.0	0.0	0.0	-1.0	0.0	0.0	-1.0	14.0	-1.0			43.990864992141724	0.4978318214416504
14	38.89591383934021	stimulus_window	2	-1	12	99	0.0	0.0	0.0	0.0	-1.0	0.0	0.0	-1.0	14.0	-1.0			44.488696813583374	0.20025110244750977
14	39.09616494178772	response_window	3	-1	72	99	0.0	0.0	0.0	0.0	-1.0	0.0	0.0	-1.0	14.0	-1.0			44.688947916030884	1.200598955154419
14	40.29676389694214	feedback_window	4	-1	18	99	0.0	0.0	0.0	0.0	-1.0	0.0	0.0	-1.0	14.0	-1.0			45.8895468711853	0.3005409240722656
14	40.597304821014404	ITI_window	5	-1	51	99	0.0	0.0	0.0	0.0	-1.0	0.0	0.0	-1.0	14.0	-1.0			46.19008779525757	0.8504741191864014
15	41.447778940200806	blockStart	0	-1	0	99	0.0	1.0	0.0	0.04	-1.0	0.0	0.0	-1.0	15.0	-1.0			47.04056191444397	0.003618001937866211
15	41.45139694213867	baseline_window	1	-1	29	99	0.0	1.0	0.0	0.04	-1.0	0.0	0.0	-1.0	15.0	-1.0			47.044179916381836	0.47989988327026367
15	41.931296825408936	stimulus_window	2	-1	12	99	0.0	1.0	0.0	0.04	-1.0	0.0	0.0	-1.0	15.0	-1.0			47.5240797996521	0.20047211647033691
15	42.13176894187927	response_window	3	-1	5	99	0.0	1.0	0.0	0.04	-1.0	0.0	0.0	-1.0	15.0	-1.0			47.72455191612244	0.08324694633483887
15	42.18771290779114	response	3	0	5						0.0			0.25641608238220215		0.0	s		47.7804958820343	
15	42.21501588821411	feedback_window	4	0	19	99	0.0	1.0	0.0	0.04	0.0	0.0	0.0	0.25641608238220215	15.0	0.0			47.807798862457275	0.31668996810913086
15	42.53170585632324	ITI_window	5	0	37	99	0.0	1.0	0.0	0.04	0.0	0.0	0.0	0.25641608238220215	15.0	0.0			48.124488830566406	0.6170699596405029
16	43.148775815963745	blockStart	0	-1	0	99	0.0	1.0	0.0	0.020000000000000004	-1.0	0.0	0.0	-1.0	16.0	-1.0			48.74155879020691	0.004247188568115234
16	43.15302300453186	baseline_window	1	-1	29	99	0.0	1.0	0.0	0.020000000000000004	-1.0	0.0	0.0	-1.0	16.0	-1.0			48.745805978775024	0.47963380813598633
16	43.63265681266785	stimulus_window	2	-1	12	99	0.0	1.0	0.0	0.020000000000000004	-1.0	0.0	0.0	-1.0	16.0	-1.0			49.22543978691101	0.2002730369567871
16	43.832929849624634	response_window	3	-1	4	99	0.0	1.0	0.0	0.020000000000000004	-1.0	0.0	0.0	-1.0	16.0	-1.0			49.4257128238678	0.06666302680969238
16	43.87231397628784	response	3	0	4						0.0			0.23965716361999512		1.0	a		49.465096950531006	
16	43.899592876434326	feedback_window	4	0	19	99	0.0	1.0	0.0	0.020000000000000004	0.0	0.0	0.0		16.0	1.0		0.23965716361999512	49.49237585067749	0.3170650005340576
16	44.216657876968384	ITI_window	5	0	58	99	0.0	1.0	0.0	0.020000000000000004	0.0	0.0	0.0		16.0	1.0		0.23965716361999512	49.80944085121155	0.9670650959014893
17	45.18372297286987	blockStart	0	-1	0	99	0.0	0.0	0.0	0.0	-1.0	0.0	0.0	-1.0	17.0	-1.0			50.77650594711304	0.003576993942260742
17	45.187299966812134	baseline_window	1	-1	29	99	0.0	0.0	0.0	0.0	-1.0	0.0	0.0	-1.0	17.0	-1.0			50.7800829410553	0.4803788661956787
17	45.66767883300781	stimulus_window	2	-1	12	99	0.0	0.0	0.0	0.0	-1.0	0.0	0.0	-1.0	17.0	-1.0			51.26046180725098	0.20022797584533691
17	45.86790680885315	response_window	3	-1	72	99	0.0	0.0	0.0	0.0	-1.0	0.0	0.0	-1.0	17.0	-1.0			51.46068978309631	1.200707197189331
17	47.06861400604248	feedback_window	4	-1	18	99	0.0	0.0	0.0	0.0	-1.0	0.0	0.0	-1.0	17.0	-1.0			52.661396980285645	0.30014491081237793
17	47.36875891685486	ITI_window	5	-1	50	99	0.0	0.0	0.0	0.0	-1.0	0.0	0.0	-1.0	17.0	-1.0			52.96154189109802	0.833838939666748
18	48.202597856521606	blockStart	0	-1	0	99	0.0	1.0	0.0	0.005	-1.0	0.0	0.0	-1.0	18.0	-1.0			53.79538083076477	0.0034160614013671875
18	48.206013917922974	baseline_window	1	-1	30	99	0.0	1.0	0.0	0.005	-1.0	0.0	0.0	-1.0	18.0	-1.0			53.79879689216614	0.49729490280151367
18	48.70330882072449	stimulus_window	2	-1	12	99	0.0	1.0	0.0	0.005	-1.0	0.0	0.0	-1.0	18.0	-1.0			54.29609179496765	0.20018815994262695
18	48.903496980667114	response_window	3	-1	72	99	0.0	1.0	0.0	0.005	-1.0	0.0	0.0	-1.0	18.0	-1.0			54.49627995491028	1.2010078430175781
18	50.10450482368469	feedback_window	4	-1	18	99	0.0	1.0	0.0	0.005	-1.0	0.0	0.0	-1.0	18.0	-1.0			55.697287797927856	0.30022311210632324
18	50.404727935791016	ITI_window	5	-1	54	99	0.0	1.0	0.0	0.005	-1.0	0.0	0.0	-1.0	18.0	-1.0			55.99751091003418	0.9001588821411133
19	51.30488681793213	blockStart	0	-1	0	99	0.0	1.0	1.0	0.04	-1.0	0.0	0.0	-1.0	19.0	-1.0			56.89766979217529	0.00360107421875
19	51.30848789215088	baseline_window	1	-1	29	99	0.0	1.0	1.0	0.04	-1.0	0.0	0.0	-1.0	19.0	-1.0			56.90127086639404	0.4801759719848633
19	51.78866386413574	stimulus_window	2	-1	12	99	0.0	1.0	1.0	0.04	-1.0	0.0	0.0	-1.0	19.0	-1.0			57.381446838378906	0.20035600662231445
19	51.98901987075806	response_window	3	-1	72	99	0.0	1.0	1.0	0.04	-1.0	0.0	0.0	-1.0	19.0	-1.0			57.58180284500122	1.2011771202087402
19	53.1901969909668	feedback_window	4	-1	18	99	0.0	1.0	1.0	0.04	-1.0	0.0	0.0	-1.0	19.0	-1.0			58.78297996520996	0.30019283294677734
19	53.490389823913574	ITI_window	5	-1	40	99	0.0	1.0	1.0	0.04	-1.0	0.0	0.0	-1.0	19.0	-1.0			59.08317279815674	0.6668350696563721
20	54.157224893569946	blockStart	0	-1	0	99	0.0	1.0	0.0	0.020000000000000004	-1.0	0.0	0.0	-1.0	20.0	-1.0			59.75000786781311	0.0043179988861083984
20	54.161542892456055	baseline_window	1	-1	30	99	0.0	1.0	0.0	0.020000000000000004	-1.0	0.0	0.0	-1.0	20.0	-1.0			59.75432586669922	0.4962129592895508
20	54.657755851745605	stimulus_window	2	-1	12	99	0.0	1.0	0.0	0.020000000000000004	-1.0	0.0	0.0	-1.0	20.0	-1.0			60.25053882598877	0.20014309883117676
20	54.85789895057678	response_window	3	-1	72	99	0.0	1.0	0.0	0.020000000000000004	-1.0	0.0	0.0	-1.0	20.0	-1.0			60.450681924819946	1.2009398937225342
20	56.058838844299316	feedback_window	4	-1	18	99	0.0	1.0	0.0	0.020000000000000004	-1.0	0.0	0.0	-1.0	20.0	-1.0			61.65162181854248	0.3000340461730957
20	56.35887289047241	ITI_window	5	-1	57	99	0.0	1.0	0.0	0.020000000000000004	-1.0	0.0	0.0	-1.0	20.0	-1.0			61.951655864715576	0.9506211280822754
21	57.30949401855469	blockStart	0	-1	0	99	0.0	1.0	0.0	0.045000000000000005	-1.0	0.0	0.0	-1.0	21.0	-1.0			62.90227699279785	0.004108905792236328
21	57.313602924346924	baseline_window	1	-1	29	99	0.0	1.0	0.0	0.045000000000000005	-1.0	0.0	0.0	-1.0	21.0	-1.0			62.90638589859009	0.4798250198364258
21	57.79342794418335	stimulus_window	2	-1	12	99	0.0	1.0	0.0	0.045000000000000005	-1.0	0.0	0.0	-1.0	21.0	-1.0			63.386210918426514	0.20017600059509277
21	57.99360394477844	response_window	3	-1	72	99	0.0	1.0	0.0	0.045000000000000005	-1.0	0.0	0.0	-1.0	21.0	-1.0			63.586386919021606	1.201004981994629
21	59.19460892677307	feedback_window	4	-1	18	99	0.0	1.0	0.0	0.045000000000000005	-1.0	0.0	0.0	-1.0	21.0	-1.0			64.78739190101624	0.3000938892364502
21	59.49470281600952	ITI_window	5	-1	49	99	0.0	1.0	0.0	0.045000000000000005	-1.0	0.0	0.0	-1.0	21.0	-1.0			65.08748579025269	0.817471981048584
22	60.312174797058105	blockStart	0	-1	0	99	0.0	0.0	1.0	0.0	-1.0	0.0	0.0	-1.0	22.0	-1.0			65.90495777130127	0.0033881664276123047
22	60.31556296348572	baseline_window	1	-1	29	99	0.0	0.0	1.0	0.0	-1.0	0.0	0.0	-1.0	22.0	-1.0			65.90834593772888	0.48016786575317383
22	60.79573082923889	stimulus_window	2	-1	12	99	0.0	0.0	1.0	0.0	-1.0	0.0	0.0	-1.0	22.0	-1.0			66.38851380348206	0.20050501823425293
22	60.996235847473145	response_window	3	-1	72	99	0.0	0.0	1.0	0.0	-1.0	0.0	0.0	-1.0	22.0	-1.0			66.58901882171631	1.2004621028900146
22	62.19669795036316	feedback_window	4	-1	18	99	0.0	0.0	1.0	0.0	-1.0	0.0	0.0	-1.0	22.0	-1.0			67.78948092460632	0.30022597312927246
22	62.49692392349243	ITI_window	5	-1	51	99	0.0	0.0	1.0	0.0	-1.0	0.0	0.0	-1.0	22.0	-1.0			68.0897068977356	0.8506560325622559
23	63.34757995605469	blockStart	0	-1	0	99	0.0	1.0	1.0	0.04	-1.0	0.0	0.0	-1.0	23.0	-1.0			68.94036293029785	0.004029035568237305
23	63.351608991622925	baseline_window	1	-1	30	99	0.0	1.0	1.0	0.04	-1.0	0.0	0.0	-1.0	23.0	-1.0			68.94439196586609	0.4964158535003662
23	63.84802484512329	stimulus_window	2	-1	12	99	0.0	1.0	1.0	0.04	-1.0	0.0	0.0	-1.0	23.0	-1.0			69.44080781936646	0.20016217231750488
23	64.0481870174408	response_window	3	-1	72	99	0.0	1.0	1.0	0.04	-1.0	0.0	0.0	-1.0	23.0	-1.0			69.64096999168396	1.2007157802581787
23	65.24890279769897	feedback_window	4	-1	18	99	0.0	1.0	1.0	0.04	-1.0	0.0	0.0	-1.0	23.0	-1.0			70.84168577194214	0.30023813247680664
23	65.54914093017578	ITI_window	5	-1	52	99	0.0	1.0	1.0	0.04	-1.0	0.0	0.0	-1.0	23.0	-1.0			71.14192390441895	0.8671669960021973
24	66.41630792617798	blockStart	0	-1	0	99	0.0	1.0	1.0	0.045000000000000005	-1.0	0.0	0.0	-1.0	24.0	-1.0			72.00909090042114	0.004868030548095703
24	66.42117595672607	baseline_window	1	-1	29	99	0.0	1.0	1.0	0.045000000000000005	-1.0	0.0	0.0	-1.0	24.0	-1.0			72.01395893096924	0.47897887229919434
24	66.90015482902527	stimulus_window	2	-1	12	99	0.0	1.0	1.0	0.045000000000000005	-1.0	0.0	0.0	-1.0	24.0	-1.0			72.49293780326843	0.2003040313720703
24	67.10045886039734	response_window	3	-1	72	99	0.0	1.0	1.0	0.045000000000000005	-1.0	0.0	0.0	-1.0	24.0	-1.0			72.6932418346405	1.2009379863739014
24	68.30139684677124	feedback_window	4	-1	18	99	0.0	1.0	1.0	0.045000000000000005	-1.0	0.0	0.0	-1.0	24.0	-1.0			73.8941798210144	0.30016112327575684
24	68.601557970047	ITI_window	5	-1	54	99	0.0	1.0	1.0	0.045000000000000005	-1.0	0.0	0.0	-1.0	24.0	-1.0			74.19434094429016	0.9004158973693848
25	69.50197386741638	blockStart	0	-1	0	99	0.0	1.0	1.0	0.035	-1.0	0.0	0.0	-1.0	25.0	-1.0			75.09475684165955	0.003710031509399414
25	69.50568389892578	baseline_window	1	-1	30	99	0.0	1.0	1.0	0.035	-1.0	0.0	0.0	-1.0	25.0	-1.0			75.09846687316895	0.4969360828399658
25	70.00261998176575	stimulus_window	2	-1	12	99	0.0	1.0	1.0	0.035	-1.0	0.0	0.0	-1.0	25.0	-1.0			75.59540295600891	0.1998000144958496
25	70.2024199962616	response_window	3	-1	72	99	0.0	1.0	1.0	0.035	-1.0	0.0	0.0	-1.0	25.0	-1.0			75.79520297050476	1.201305866241455
25	71.40372586250305	feedback_window	4	-1	18	99	0.0	1.0	1.0	0.035	-1.0	0.0	0.0	-1.0	25.0	-1.0			76.99650883674622	0.3002040386199951
25	71.70392990112305	ITI_window	5	-1	59	99	0.0	1.0	1.0	0.035	-1.0	0.0	0.0	-1.0	25.0	-1.0			77.29671287536621	0.9839520454406738
26	72.68788194656372	blockStart	0	-1	0	99	0.0	1.0	1.0	0.015000000000000003	-1.0	0.0	0.0	-1.0	26.0	-1.0			78.28066492080688	0.004163980484008789
26	72.69204592704773	baseline_window	1	-1	29	99	0.0	1.0	1.0	0.015000000000000003	-1.0	0.0	0.0	-1.0	26.0	-1.0			78.2848289012909	0.47962093353271484
26	73.17166686058044	stimulus_window	2	-1	12	99	0.0	1.0	1.0	0.015000000000000003	-1.0	0.0	0.0	-1.0	26.0	-1.0			78.76444983482361	0.20022201538085938
26	73.3718888759613	response_window	3	-1	72	99	0.0	1.0	1.0	0.015000000000000003	-1.0	0.0	0.0	-1.0	26.0	-1.0			78.96467185020447	1.2008490562438965
26	74.5727379322052	feedback_window	4	-1	18	99	0.0	1.0	1.0	0.015000000000000003	-1.0	0.0	0.0	-1.0	26.0	-1.0			80.16552090644836	0.3003220558166504
26	74.87305998802185	ITI_window	5	-1	45	99	0.0	1.0	1.0	0.015000000000000003	-1.0	0.0	0.0	-1.0	26.0	-1.0			80.46584296226501	0.7502059936523438
27	75.6232659816742	blockStart	0	-1	0	99	0.0	0.0	0.0	0.0	-1.0	0.0	0.0	-1.0	27.0	-1.0			81.21604895591736	0.004869937896728516
27	75.62813591957092	baseline_window	1	-1	28	99	0.0	0.0	0.0	0.0	-1.0	0.0	0.0	-1.0	27.0	-1.0			81.22091889381409	0.47933006286621094
27	76.10746598243713	stimulus_window	2	-1	12	99	0.0	0.0	0.0	0.0	-1.0	0.0	0.0	-1.0	27.0	-1.0			81.7002489566803	0.19978880882263184
27	76.30725479125977	response_window	3	-1	72	99	0.0	0.0	0.0	0.0	-1.0	0.0	0.0	-1.0	27.0	-1.0			81.90003776550293	1.2008881568908691
27	77.50814294815063	feedback_window	4	-1	18	99	0.0	0.0	0.0	0.0	-1.0	0.0	0.0	-1.0	27.0	-1.0			83.1009259223938	0.3001399040222168
27	77.80828285217285	ITI_window	5	-1	46	99	0.0	0.0	0.0	0.0	-1.0	0.0	0.0	-1.0	27.0	-1.0			83.40106582641602	0.7671010494232178
28	78.57538390159607	blockStart	0	-1	0	99	0.0	0.0	1.0	0.0	-1.0	0.0	0.0	-1.0	28.0	-1.0			84.16816687583923	0.00398707389831543
28	78.57937097549438	baseline_window	1	-1	29	99	0.0	0.0	1.0	0.0	-1.0	0.0	0.0	-1.0	28.0	-1.0			84.17215394973755	0.4802279472351074
28	79.05959892272949	stimulus_window	2	-1	12	99	0.0	0.0	1.0	0.0	-1.0	0.0	0.0	-1.0	28.0	-1.0			84.65238189697266	0.20011186599731445
28	79.2597107887268	response_window	3	-1	72	99	0.0	0.0	1.0	0.0	-1.0	0.0	0.0	-1.0	28.0	-1.0			84.85249376296997	1.200639009475708
28	80.46034979820251	feedback_window	4	-1	18	99	0.0	0.0	1.0	0.0	-1.0	0.0	0.0	-1.0	28.0	-1.0			86.05313277244568	0.3003580570220947
28	80.76070785522461	ITI_window	5	-1	59	99	0.0	0.0	1.0	0.0	-1.0	0.0	0.0	-1.0	28.0	-1.0			86.35349082946777	0.983896017074585
29	81.7446038722992	blockStart	0	-1	0	99	0.0	0.0	0.0	0.0	-1.0	0.0	0.0	-1.0	29.0	-1.0			87.33738684654236	0.00413203239440918
29	81.7487359046936	baseline_window	1	-1	30	99	0.0	0.0	0.0	0.0	-1.0	0.0	0.0	-1.0	29.0	-1.0			87.34151887893677	0.496380090713501
29	82.2451159954071	stimulus_window	2	-1	12	99	0.0	0.0	0.0	0.0	-1.0	0.0	0.0	-1.0	29.0	-1.0			87.83789896965027	0.20032787322998047
29	82.44544386863708	response_window	3	-1	71	99	0.0	0.0	0.0	0.0	-1.0	0.0	0.0	-1.0	29.0	-1.0			88.03822684288025	1.184114933013916
29	83.629558801651	feedback_window	4	-1	18	99	0.0	0.0	0.0	0.0	-1.0	0.0	0.0	-1.0	29.0	-1.0			89.22234177589417	0.30017709732055664
29	83.92973589897156	ITI_window	5	-1	40	99	0.0	0.0	0.0	0.0	-1.0	0.0	0.0	-1.0	29.0	-1.0			89.52251887321472	0.733936071395874
30	84.66367197036743	blockStart	0	-1	0	99	0.0	0.0	0.0	0.0	-1.0	0.0	0.0	-1.0	30.0	-1.0			90.2564549446106	0.0031239986419677734
30	84.6667959690094	baseline_window	1	-1	29	99	0.0	0.0	0.0	0.0	-1.0	0.0	0.0	-1.0	30.0	-1.0			90.25957894325256	0.4806549549102783
30	85.14745092391968	stimulus_window	2	-1	12	99	0.0	0.0	0.0	0.0	-1.0	0.0	0.0	-1.0	30.0	-1.0			90.74023389816284	0.19991302490234375
30	85.34736394882202	response_window	3	-1	72	99	0.0	0.0	0.0	0.0	-1.0	0.0	0.0	-1.0	30.0	-1.0			90.94014692306519	1.2011198997497559
30	86.54848384857178	feedback_window	4	-1	18	99	0.0	0.0	0.0	0.0	-1.0	0.0	0.0	-1.0	30.0	-1.0			92.14126682281494	0.30010294914245605
30	86.84858679771423	ITI_window	5	-1	58	99	0.0	0.0	0.0	0.0	-1.0	0.0	0.0	-1.0	30.0	-1.0			92.4413697719574	0.9673290252685547
31	87.81591582298279	blockStart	0	-1	0	99	0.0	1.0	1.0	0.05	-1.0	0.0	0.0	-1.0	31.0	-1.0			93.40869879722595	0.003509044647216797
31	87.81942486763	baseline_window	1	-1	30	99	0.0	1.0	1.0	0.05	-1.0	0.0	0.0	-1.0	31.0	-1.0			93.41220784187317	0.49710607528686523
31	88.31653094291687	stimulus_window	2	-1	12	99	0.0	1.0	1.0	0.05	-1.0	0.0	0.0	-1.0	31.0	-1.0			93.90931391716003	0.2001328468322754
31	88.51666378974915	response_window	3	-1	72	99	0.0	1.0	1.0	0.05	-1.0	0.0	0.0	-1.0	31.0	-1.0			94.10944676399231	1.200782060623169
31	89.71744585037231	feedback_window	4	-1	18	99	0.0	1.0	1.0	0.05	-1.0	0.0	0.0	-1.0	31.0	-1.0			95.31022882461548	0.30036115646362305
31	90.01780700683594	ITI_window	5	-1	53	99	0.0	1.0	1.0	0.05	-1.0	0.0	0.0	-1.0	31.0	-1.0			95.6105899810791	0.8839399814605713
32	90.90174698829651	blockStart	0	-1	0	99	0.0	1.0	1.0	0.035	-1.0	0.0	0.0	-1.0	32.0	-1.0			96.49452996253967	0.004725933074951172
32	90.90647292137146	baseline_window	1	-1	29	99	0.0	1.0	1.0	0.035	-1.0	0.0	0.0	-1.0	32.0	-1.0			96.49925589561462	0.47893190383911133
32	91.38540482521057	stimulus_window	2	-1	12	99	0.0	1.0	1.0	0.035	-1.0	0.0	0.0	-1.0	32.0	-1.0			96.97818779945374	0.20031309127807617
32	91.58571791648865	response_window	3	-1	72	99	0.0	1.0	1.0	0.035	-1.0	0.0	0.0	-1.0	32.0	-1.0			97.17850089073181	1.2008020877838135
32	92.78652000427246	feedback_window	4	-1	18	99	0.0	1.0	1.0	0.035	-1.0	0.0	0.0	-1.0	32.0	-1.0			98.37930297851562	0.300137996673584
32	93.08665800094604	ITI_window	5	-1	41	99	0.0	1.0	1.0	0.035	-1.0	0.0	0.0	-1.0	32.0	-1.0			98.67944097518921	0.6834948062896729
33	93.77015280723572	blockStart	0	-1	0	99	0.0	0.0	1.0	0.0	-1.0	0.0	0.0	-1.0	33.0	-1.0			99.36293578147888	0.003242015838623047
33	93.77339482307434	baseline_window	1	-1	29	99	0.0	0.0	1.0	0.0	-1.0	0.0	0.0	-1.0	33.0	-1.0			99.3661777973175	0.48110318183898926
33	94.25449800491333	stimulus_window	2	-1	12	99	0.0	0.0	1.0	0.0	-1.0	0.0	0.0	-1.0	33.0	-1.0			99.8472809791565	0.20004796981811523
33	94.45454597473145	response_window	3	-1	72	99	0.0	0.0	1.0	0.0	-1.0	0.0	0.0	-1.0	33.0	-1.0			100.04732894897461	1.200800895690918
33	95.65534687042236	feedback_window	4	-1	18	99	0.0	0.0	1.0	0.0	-1.0	0.0	0.0	-1.0	33.0	-1.0			101.24812984466553	0.3003981113433838
33	95.95574498176575	ITI_window	5	-1	49	99	0.0	0.0	1.0	0.0	-1.0	0.0	0.0	-1.0	33.0	-1.0			101.54852795600891	0.8167989253997803
34	96.77254390716553	blockStart	0	-1	0	99	0.0	0.0	0.0	0.0	-1.0	0.0	0.0	-1.0	34.0	-1.0			102.36532688140869	0.00412297248840332
34	96.77666687965393	baseline_window	1	-1	30	99	0.0	0.0	0.0	0.0	-1.0	0.0	0.0	-1.0	34.0	-1.0			102.3694498538971	0.49651503562927246
34	97.2731819152832	stimulus_window	2	-1	12	99	0.0	0.0	0.0	0.0	-1.0	0.0	0.0	-1.0	34.0	-1.0			102.86596488952637	0.20026493072509766
34	97.4734468460083	response_window	3	-1	72	99	0.0	0.0	0.0	0.0	-1.0	0.0	0.0	-1.0	34.0	-1.0			103.06622982025146	1.2009930610656738
34	98.67443990707397	feedback_window	4	-1	18	99	0.0	0.0	0.0	0.0	-1.0	0.0	0.0	-1.0	34.0	-1.0			104.26722288131714	0.30010390281677246
34	98.97454380989075	ITI_window	5	-1	59	99	0.0	0.0	0.0	0.0	-1.0	0.0	0.0	-1.0	34.0	-1.0			104.56732678413391	0.9837050437927246
35	99.95824885368347	blockStart	0	-1	0	99	0.0	1.0	0.0	0.005	-1.0	0.0	0.0	-1.0	35.0	-1.0			105.55103182792664	0.004179954528808594
35	99.96242880821228	baseline_window	1	-1	29	99	0.0	1.0	0.0	0.005	-1.0	0.0	0.0	-1.0	35.0	-1.0			105.55521178245544	0.4799230098724365
35	100.44235181808472	stimulus_window	2	-1	12	99	0.0	1.0	0.0	0.005	-1.0	0.0	0.0	-1.0	35.0	-1.0			106.03513479232788	0.20040202140808105
35	100.6427538394928	response_window	3	-1	72	99	0.0	1.0	0.0	0.005	-1.0	0.0	0.0	-1.0	35.0	-1.0			106.23553681373596	1.200627088546753
35	101.84338092803955	feedback_window	4	-1	18	99	0.0	1.0	0.0	0.005	-1.0	0.0	0.0	-1.0	35.0	-1.0			107.43616390228271	0.30015993118286133
35	102.14354085922241	ITI_window	5	-1	48	99	0.0	1.0	0.0	0.005	-1.0	0.0	0.0	-1.0	35.0	-1.0			107.73632383346558	0.8002650737762451
36	102.94380593299866	blockStart	0	-1	0	99	0.0	0.0	0.0	0.0	-1.0	0.0	0.0	-1.0	36.0	-1.0			108.53658890724182	0.004350900650024414
36	102.94815683364868	baseline_window	1	-1	30	99	0.0	0.0	0.0	0.0	-1.0	0.0	0.0	-1.0	36.0	-1.0			108.54093980789185	0.49645209312438965
36	103.44460892677307	stimulus_window	2	-1	12	99	0.0	0.0	0.0	0.0	-1.0	0.0	0.0	-1.0	36.0	-1.0			109.03739190101624	0.20011091232299805
36	103.64471983909607	response_window	3	-1	72	99	0.0	0.0	0.0	0.0	-1.0	0.0	0.0	-1.0	36.0	-1.0			109.23750281333923	1.2007660865783691
36	104.84548592567444	feedback_window	4	-1	18	99	0.0	0.0	0.0	0.0	-1.0	0.0	0.0	-1.0	36.0	-1.0			110.4382688999176	0.30100297927856445
36	105.146488904953	ITI_window	5	-1	59	99	0.0	0.0	0.0	0.0	-1.0	0.0	0.0	-1.0	36.0	-1.0			110.73927187919617	0.9832949638366699
37	106.12978386878967	blockStart	0	-1	0	99	0.0	1.0	1.0	0.045000000000000005	-1.0	0.0	0.0	-1.0	37.0	-1.0			111.72256684303284	0.003512144088745117
37	106.13329601287842	baseline_window	1	-1	30	99	0.0	1.0	1.0	0.045000000000000005	-1.0	0.0	0.0	-1.0	37.0	-1.0			111.72607898712158	0.4970839023590088
37	106.63037991523743	stimulus_window	2	-1	12	99	0.0	1.0	1.0	0.045000000000000005	-1.0	0.0	0.0	-1.0	37.0	-1.0			112.22316288948059	0.20024895668029785
37	106.83062887191772	response_window	3	-1	71	99	0.0	1.0	1.0	0.045000000000000005	-1.0	0.0	0.0	-1.0	37.0	-1.0			112.42341184616089	1.184041976928711
37	108.01467084884644	feedback_window	4	-1	18	99	0.0	1.0	1.0	0.045000000000000005	-1.0	0.0	0.0	-1.0	37.0	-1.0			113.6074538230896	0.300184965133667
37	108.3148558139801	ITI_window	5	-1	52	99	0.0	1.0	1.0	0.045000000000000005	-1.0	0.0	0.0	-1.0	37.0	-1.0			113.90763878822327	0.867225170135498
38	109.1820809841156	blockStart	0	-1	0	99	0.0	1.0	1.0	0.035	-1.0	0.0	0.0	-1.0	38.0	-1.0			114.77486395835876	0.0032868385314941406
38	109.1853678226471	baseline_window	1	-1	30	99	0.0	1.0	1.0	0.035	-1.0	0.0	0.0	-1.0	38.0	-1.0			114.77815079689026	0.497298002243042
38	109.68266582489014	stimulus_window	2	-1	12	99	0.0	1.0	1.0	0.035	-1.0	0.0	0.0	-1.0	38.0	-1.0			115.2754487991333	0.19988608360290527
38	109.88255190849304	response_window	3	-1	72	99	0.0	1.0	1.0	0.035	-1.0	0.0	0.0	-1.0	38.0	-1.0			115.4753348827362	1.2010340690612793
38	111.08358597755432	feedback_window	4	-1	18	99	0.0	1.0	1.0	0.035	-1.0	0.0	0.0	-1.0	38.0	-1.0			116.67636895179749	0.30021095275878906
38	111.38379693031311	ITI_window	5	-1	43	99	0.0	1.0	1.0	0.035	-1.0	0.0	0.0	-1.0	38.0	-1.0			116.97657990455627	0.7169899940490723
39	112.10078692436218	blockStart	0	-1	0	99	0.0	0.0	0.0	0.0	-1.0	0.0	0.0	-1.0	39.0	-1.0			117.69356989860535	0.0030028820037841797
39	112.10378980636597	baseline_window	1	-1	30	99	0.0	0.0	0.0	0.0	-1.0	0.0	0.0	-1.0	39.0	-1.0			117.69657278060913	0.49762511253356934
39	112.60141491889954	stimulus_window	2	-1	12	99	0.0	0.0	0.0	0.0	-1.0	0.0	0.0	-1.0	39.0	-1.0			118.1941978931427	0.20023798942565918
39	112.8016529083252	response_window	3	-1	72	99	0.0	0.0	0.0	0.0	-1.0	0.0	0.0	-1.0	39.0	-1.0			118.39443588256836	1.2009449005126953
39	114.00259780883789	feedback_window	4	-1	18	99	0.0	0.0	0.0	0.0	-1.0	0.0	0.0	-1.0	39.0	-1.0			119.59538078308105	0.29990720748901367
39	114.3025050163269	ITI_window	5	-1	44	99	0.0	0.0	0.0	0.0	-1.0	0.0	0.0	-1.0	39.0	-1.0			119.89528799057007	0.7339868545532227
40	115.03649187088013	blockStart	0	-1	0	99	0.0	1.0	0.0	0.015000000000000003	-1.0	0.0	0.0	-1.0	40.0	-1.0			120.62927484512329	0.0037360191345214844
40	115.04022789001465	baseline_window	1	-1	29	99	0.0	1.0	0.0	0.015000000000000003	-1.0	0.0	0.0	-1.0	40.0	-1.0			120.63301086425781	0.47989511489868164
40	115.52012300491333	stimulus_window	2	-1	12	99	0.0	1.0	0.0	0.015000000000000003	-1.0	0.0	0.0	-1.0	40.0	-1.0			121.1129059791565	0.20015382766723633
40	115.72027683258057	response_window	3	-1	72	99	0.0	1.0	0.0	0.015000000000000003	-1.0	0.0	0.0	-1.0	40.0	-1.0			121.31305980682373	1.2009899616241455
40	116.92126679420471	feedback_window	4	-1	18	99	0.0	1.0	0.0	0.015000000000000003	-1.0	0.0	0.0	-1.0	40.0	-1.0			122.51404976844788	0.3004791736602783
40	117.22174596786499	ITI_window	5	-1	60	99	0.0	1.0	0.0	0.015000000000000003	-1.0	0.0	0.0	-1.0	40.0	-1.0			122.81452894210815	1.0004818439483643
41	118.22222781181335	blockStart	0	-1	0	99	0.0	0.0	0.0	0.0	-1.0	0.0	0.0	-1.0	41.0	-1.0			123.81501078605652	0.003319978713989258
41	118.22554779052734	baseline_window	1	-1	29	99	0.0	0.0	0.0	0.0	-1.0	0.0	0.0	-1.0	41.0	-1.0			123.81833076477051	0.48050522804260254
41	118.70605301856995	stimulus_window	2	-1	12	99	0.0	0.0	0.0	0.0	-1.0	0.0	0.0	-1.0	41.0	-1.0			124.29883599281311	0.20011591911315918
41	118.9061689376831	response_window	3	-1	72	99	0.0	0.0	0.0	0.0	-1.0	0.0	0.0	-1.0	41.0	-1.0			124.49895191192627	1.2011549472808838
41	120.10732388496399	feedback_window	4	-1	18	99	0.0	0.0	0.0	0.0	-1.0	0.0	0.0	-1.0	41.0	-1.0			125.70010685920715	0.3002200126647949
41	120.40754389762878	ITI_window	5	-1	39	99	0.0	0.0	0.0	0.0	-1.0	0.0	0.0	-1.0	41.0	-1.0			126.00032687187195	0.6501600742340088
42	121.0577039718628	blockStart	0	-1	0	99	0.0	0.0	1.0	0.0	-1.0	0.0	0.0	-1.0	42.0	-1.0			126.65048694610596	0.004308938980102539
42	121.0620129108429	baseline_window	1	-1	30	99	0.0	0.0	1.0	0.0	-1.0	0.0	0.0	-1.0	42.0	-1.0			126.65479588508606	0.49626708030700684
42	121.5582799911499	stimulus_window	2	-1	12	99	0.0	0.0	1.0	0.0	-1.0	0.0	0.0	-1.0	42.0	-1.0			127.15106296539307	0.20018887519836426
42	121.75846886634827	response_window	3	-1	72	99	0.0	0.0	1.0	0.0	-1.0	0.0	0.0	-1.0	42.0	-1.0			127.35125184059143	1.2007970809936523
42	122.95926594734192	feedback_window	4	-1	18	99	0.0	0.0	1.0	0.0	-1.0	0.0	0.0	-1.0	42.0	-1.0			128.55204892158508	0.3002510070800781
42	123.259516954422	ITI_window	5	-1	56	99	0.0	0.0	1.0	0.0	-1.0	0.0	0.0	-1.0	42.0	-1.0			128.85229992866516	0.9339900016784668
43	124.19350695610046	blockStart	0	-1	0	99	0.0	0.0	0.0	0.0	-1.0	0.0	0.0	-1.0	43.0	-1.0			129.78628993034363	0.0032689571380615234
43	124.19677591323853	baseline_window	1	-1	29	99	0.0	0.0	0.0	0.0	-1.0	0.0	0.0	-1.0	43.0	-1.0			129.7895588874817	0.480273962020874
43	124.6770498752594	stimulus_window	2	-1	12	99	0.0	0.0	0.0	0.0	-1.0	0.0	0.0	-1.0	43.0	-1.0			130.26983284950256	0.20017099380493164
43	124.87722086906433	response_window	3	-1	72	99	0.0	0.0	0.0	0.0	-1.0	0.0	0.0	-1.0	43.0	-1.0			130.4700038433075	1.2007310390472412
43	126.07795190811157	feedback_window	4	-1	18	99	0.0	0.0	0.0	0.0	-1.0	0.0	0.0	-1.0	43.0	-1.0			131.67073488235474	0.3006589412689209
43	126.3786108493805	ITI_window	5	-1	51	99	0.0	0.0	0.0	0.0	-1.0	0.0	0.0	-1.0	43.0	-1.0			131.97139382362366	0.8503341674804688
44	127.22894501686096	blockStart	0	-1	0	99	0.0	0.0	1.0	0.0	-1.0	0.0	0.0	-1.0	44.0	-1.0			132.82172799110413	0.004046916961669922
44	127.23299193382263	baseline_window	1	-1	29	99	0.0	0.0	1.0	0.0	-1.0	0.0	0.0	-1.0	44.0	-1.0			132.8257749080658	0.4796769618988037
44	127.71266889572144	stimulus_window	2	-1	12	99	0.0	0.0	1.0	0.0	-1.0	0.0	0.0	-1.0	44.0	-1.0			133.3054518699646	0.2001650333404541
44	127.91283392906189	response_window	3	-1	72	99	0.0	0.0	1.0	0.0	-1.0	0.0	0.0	-1.0	44.0	-1.0			133.50561690330505	1.2012989521026611
44	129.11413288116455	feedback_window	4	-1	18	99	0.0	0.0	1.0	0.0	-1.0	0.0	0.0	-1.0	44.0	-1.0			134.70691585540771	0.29984307289123535
44	129.4139759540558	ITI_window	5	-1	54	99	0.0	0.0	1.0	0.0	-1.0	0.0	0.0	-1.0	44.0	-1.0			135.00675892829895	0.9006829261779785
45	130.31465888023376	blockStart	0	-1	0	99	0.0	0.0	1.0	0.0	-1.0	0.0	0.0	-1.0	45.0	-1.0			135.90744185447693	0.004246950149536133
45	130.3189058303833	baseline_window	1	-1	29	99	0.0	0.0	1.0	0.0	-1.0	0.0	0.0	-1.0	45.0	-1.0			135.91168880462646	0.47976016998291016
45	130.7986660003662	stimulus_window	2	-1	12	99	0.0	0.0	1.0	0.0	-1.0	0.0	0.0	-1.0	45.0	-1.0			136.39144897460938	0.19994091987609863
45	130.9986069202423	response_window	3	-1	72	99	0.0	0.0	1.0	0.0	-1.0	0.0	0.0	-1.0	45.0	-1.0			136.59138989448547	1.2010478973388672
45	132.19965481758118	feedback_window	4	-1	18	99	0.0	0.0	1.0	0.0	-1.0	0.0	0.0	-1.0	45.0	-1.0			137.79243779182434	0.30020999908447266
45	132.49986481666565	ITI_window	5	-1	55	99	0.0	0.0	1.0	0.0	-1.0	0.0	0.0	-1.0	45.0	-1.0			138.0926477909088	0.9168910980224609
46	133.4167559146881	blockStart	0	-1	0	99	0.0	1.0	1.0	0.05	-1.0	0.0	0.0	-1.0	46.0	-1.0			139.00953888893127	0.004163026809692383
46	133.4209189414978	baseline_window	1	-1	30	99	0.0	1.0	1.0	0.05	-1.0	0.0	0.0	-1.0	46.0	-1.0			139.01370191574097	0.4966409206390381
46	133.91755986213684	stimulus_window	2	-1	12	99	0.0	1.0	1.0	0.05	-1.0	0.0	0.0	-1.0	46.0	-1.0			139.51034283638	0.2001359462738037
46	134.11769580841064	response_window	3	-1	72	99	0.0	1.0	1.0	0.05	-1.0	0.0	0.0	-1.0	46.0	-1.0			139.7104787826538	1.20113205909729
46	135.31882786750793	feedback_window	4	-1	18	99	0.0	1.0	1.0	0.05	-1.0	0.0	0.0	-1.0	46.0	-1.0			140.9116108417511	0.30007410049438477
46	135.61890196800232	ITI_window	5	-1	59	99	0.0	1.0	1.0	0.05	-1.0	0.0	0.0	-1.0	46.0	-1.0			141.21168494224548	0.983691930770874
47	136.6025938987732	blockStart	0	-1	0	99	0.0	1.0	1.0	0.025000000000000005	-1.0	0.0	0.0	-1.0	47.0	-1.0			142.19537687301636	0.0033130645751953125
47	136.6059069633484	baseline_window	1	-1	30	99	0.0	1.0	1.0	0.025000000000000005	-1.0	0.0	0.0	-1.0	47.0	-1.0			142.19868993759155	0.49738383293151855
47	137.1032907962799	stimulus_window	2	-1	12	99	0.0	1.0	1.0	0.025000000000000005	-1.0	0.0	0.0	-1.0	47.0	-1.0			142.69607377052307	0.19997501373291016
47	137.30326581001282	response_window	3	-1	71	99	0.0	1.0	1.0	0.025000000000000005	-1.0	0.0	0.0	-1.0	47.0	-1.0			142.89604878425598	1.1844911575317383
47	138.48775696754456	feedback_window	4	-1	18	99	0.0	1.0	1.0	0.025000000000000005	-1.0	0.0	0.0	-1.0	47.0	-1.0			144.08053994178772	0.3001978397369385
47	138.7879548072815	ITI_window	5	-1	57	99	0.0	1.0	1.0	0.025000000000000005	-1.0	0.0	0.0	-1.0	47.0	-1.0			144.38073778152466	0.9503440856933594
48	139.73829889297485	blockStart	0	-1	0	99	0.0	1.0	1.0	0.020000000000000004	-1.0	0.0	0.0	-1.0	48.0	-1.0			145.33108186721802	0.004158973693847656
48	139.7424578666687	baseline_window	1	-1	29	99	0.0	1.0	1.0	0.020000000000000004	-1.0	0.0	0.0	-1.0	48.0	-1.0			145.33524084091187	0.4796421527862549
48	140.22210001945496	stimulus_window	2	-1	12	99	0.0	1.0	1.0	0.020000000000000004	-1.0	0.0	0.0	-1.0	48.0	-1.0			145.81488299369812	0.20021295547485352
48	140.4223129749298	response_window	3	-1	72	99	0.0	1.0	1.0	0.020000000000000004	-1.0	0.0	0.0	-1.0	48.0	-1.0			146.01509594917297	1.2011308670043945
48	141.6234438419342	feedback_window	4	-1	18	99	0.0	1.0	1.0	0.020000000000000004	-1.0	0.0	0.0	-1.0	48.0	-1.0			147.21622681617737	0.30031704902648926
48	141.9237608909607	ITI_window	5	-1	48	99	0.0	1.0	1.0	0.020000000000000004	-1.0	0.0	0.0	-1.0	48.0	-1.0			147.51654386520386	0.8002281188964844
49	142.72398900985718	blockStart	0	-1	0	99	0.0	0.0	1.0	0.0	-1.0	0.0	0.0	-1.0	49.0	-1.0			148.31677198410034	0.0038149356842041016
49	142.72780394554138	baseline_window	1	-1	29	99	0.0	0.0	1.0	0.0	-1.0	0.0	0.0	-1.0	49.0	-1.0			148.32058691978455	0.48030591011047363
49	143.20810985565186	stimulus_window	2	-1	12	99	0.0	0.0	1.0	0.0	-1.0	0.0	0.0	-1.0	49.0	-1.0			148.80089282989502	0.20002508163452148
49	143.40813493728638	response_window	3	-1	72	99	0.0	0.0	1.0	0.0	-1.0	0.0	0.0	-1.0	49.0	-1.0			149.00091791152954	1.20060396194458
49	144.60873889923096	feedback_window	4	-1	18	99	0.0	0.0	1.0	0.0	-1.0	0.0	0.0	-1.0	49.0	-1.0			150.20152187347412	0.300307035446167
49	144.90904593467712	ITI_window	5	-1	60	99	0.0	0.0	1.0	0.0	-1.0	0.0	0.0	-1.0	49.0	-1.0			150.5018289089203	1.0006999969482422
50	145.90974593162537	blockStart	0	-1	0	99	0.0	1.0	0.0	0.015000000000000003	-1.0	0.0	0.0	-1.0	50.0	-1.0			151.50252890586853	0.004225015640258789
50	145.91397094726562	baseline_window	1	-1	29	99	0.0	1.0	0.0	0.015000000000000003	-1.0	0.0	0.0	-1.0	50.0	-1.0			151.5067539215088	0.4796299934387207
50	146.39360094070435	stimulus_window	2	-1	12	99	0.0	1.0	0.0	0.015000000000000003	-1.0	0.0	0.0	-1.0	50.0	-1.0			151.9863839149475	0.19994688034057617
50	146.59354782104492	response_window	3	-1	72	99	0.0	1.0	0.0	0.015000000000000003	-1.0	0.0	0.0	-1.0	50.0	-1.0			152.1863307952881	1.2013421058654785
50	147.7948899269104	feedback_window	4	-1	18	99	0.0	1.0	0.0	0.015000000000000003	-1.0	0.0	0.0	-1.0	50.0	-1.0			153.38767290115356	0.29998207092285156
50	148.09487199783325	ITI_window	5	-1	46	99	0.0	1.0	0.0	0.015000000000000003	-1.0	0.0	0.0	-1.0	50.0	-1.0			153.68765497207642	0.7668449878692627
51	148.86171698570251	blockStart	0	-1	0	99	0.0	1.0	0.0	0.035	-1.0	0.0	0.0	-1.0	51.0	-1.0			154.45449995994568	0.003567934036254883
51	148.86528491973877	baseline_window	1	-1	30	99	0.0	1.0	0.0	0.035	-1.0	0.0	0.0	-1.0	51.0	-1.0			154.45806789398193	0.497312068939209
51	149.36259698867798	stimulus_window	2	-1	12	99	0.0	1.0	0.0	0.035	-1.0	0.0	0.0	-1.0	51.0	-1.0			154.95537996292114	0.20030879974365234
51	149.56290578842163	response_window	3	-1	72	99	0.0	1.0	0.0	0.035	-1.0	0.0	0.0	-1.0	51.0	-1.0			155.1556887626648	1.2006111145019531
51	150.76351690292358	feedback_window	4	-1	18	99	0.0	1.0	0.0	0.035	-1.0	0.0	0.0	-1.0	51.0	-1.0			156.35629987716675	0.30037808418273926
51	151.06389498710632	ITI_window	5	-1	57	99	0.0	1.0	0.0	0.035	-1.0	0.0	0.0	-1.0	51.0	-1.0			156.6566779613495	0.9502449035644531
52	152.01413989067078	blockStart	0	-1	0	99	0.0	0.0	0.0	0.0	-1.0	0.0	0.0	-1.0	52.0	-1.0			157.60692286491394	0.003108978271484375
52	152.01724886894226	baseline_window	1	-1	30	99	0.0	0.0	0.0	0.0	-1.0	0.0	0.0	-1.0	52.0	-1.0			157.61003184318542	0.49757909774780273
52	152.51482796669006	stimulus_window	2	-1	12	99	0.0	0.0	0.0	0.0	-1.0	0.0	0.0	-1.0	52.0	-1.0			158.10761094093323	0.19997692108154297
52	152.7148048877716	response_window	3	-1	72	99	0.0	0.0	0.0	0.0	-1.0	0.0	0.0	-1.0	52.0	-1.0			158.30758786201477	1.2013299465179443
52	153.91613483428955	feedback_window	4	-1	18	99	0.0	0.0	0.0	0.0	-1.0	0.0	0.0	-1.0	52.0	-1.0			159.50891780853271	0.30004096031188965
52	154.21617579460144	ITI_window	5	-1	40	99	0.0	0.0	0.0	0.0	-1.0	0.0	0.0	-1.0	52.0	-1.0			159.8089587688446	0.6669211387634277
53	154.88309693336487	blockStart	0	-1	0	99	0.0	1.0	0.0	0.05	-1.0	0.0	0.0	-1.0	53.0	-1.0			160.47587990760803	0.004132986068725586
53	154.8872299194336	baseline_window	1	-1	29	99	0.0	1.0	0.0	0.05	-1.0	0.0	0.0	-1.0	53.0	-1.0			160.48001289367676	0.47986698150634766
53	155.36709690093994	stimulus_window	2	-1	12	99	0.0	1.0	0.0	0.05	-1.0	0.0	0.0	-1.0	53.0	-1.0			160.9598798751831	0.20022106170654297
53	155.56731796264648	response_window	3	-1	72	99	0.0	1.0	0.0	0.05	-1.0	0.0	0.0	-1.0	53.0	-1.0			161.16010093688965	1.200882911682129
53	156.7682008743286	feedback_window	4	-1	18	99	0.0	1.0	0.0	0.05	-1.0	0.0	0.0	-1.0	53.0	-1.0			162.36098384857178	0.3000349998474121
53	157.06823587417603	ITI_window	5	-1	48	99	0.0	1.0	0.0	0.05	-1.0	0.0	0.0	-1.0	53.0	-1.0			162.6610188484192	0.8003330230712891
54	157.86856889724731	blockStart	0	-1	0	99	0.0	0.0	0.0	0.0	-1.0	0.0	0.0	-1.0	54.0	-1.0			163.46135187149048	0.003993988037109375
54	157.87256288528442	baseline_window	1	-1	29	99	0.0	0.0	0.0	0.0	-1.0	0.0	0.0	-1.0	54.0	-1.0			163.4653458595276	0.4801750183105469
54	158.35273790359497	stimulus_window	2	-1	12	99	0.0	0.0	0.0	0.0	-1.0	0.0	0.0	-1.0	54.0	-1.0			163.94552087783813	0.19997000694274902
54	158.55270791053772	response_window	3	-1	72	99	0.0	0.0	0.0	0.0	-1.0	0.0	0.0	-1.0	54.0	-1.0			164.14549088478088	1.2007739543914795
54	159.7534818649292	feedback_window	4	-1	18	99	0.0	0.0	0.0	0.0	-1.0	0.0	0.0	-1.0	54.0	-1.0			165.34626483917236	0.3010280132293701
54	160.05450987815857	ITI_window	5	-1	54	99	0.0	0.0	0.0	0.0	-1.0	0.0	0.0	-1.0	54.0	-1.0			165.64729285240173	0.9001281261444092
55	160.95463800430298	blockStart	0	-1	0	99	0.0	1.0	1.0	0.045000000000000005	-1.0	0.0	0.0	-1.0	55.0	-1.0			166.54742097854614	0.003529787063598633
55	160.95816779136658	baseline_window	1	-1	29	99	0.0	1.0	1.0	0.045000000000000005	-1.0	0.0	0.0	-1.0	55.0	-1.0			166.55095076560974	0.4800300598144531
55	161.43819785118103	stimulus_window	2	-1	12	99	0.0	1.0	1.0	0.045000000000000005	-1.0	0.0	0.0	-1.0	55.0	-1.0			167.0309808254242	0.20016193389892578
55	161.63835978507996	response_window	3	-1	72	99	0.0	1.0	1.0	0.045000000000000005	-1.0	0.0	0.0	-1.0	55.0	-1.0			167.23114275932312	1.2007410526275635
55	162.83910083770752	feedback_window	4	-1	18	99	0.0	1.0	1.0	0.045000000000000005	-1.0	0.0	0.0	-1.0	55.0	-1.0			168.43188381195068	0.3007011413574219
55	163.13980197906494	ITI_window	5	-1	56	99	0.0	1.0	1.0	0.045000000000000005	-1.0	0.0	0.0	-1.0	55.0	-1.0			168.7325849533081	0.9335160255432129
56	164.07331800460815	blockStart	0	-1	0	99	0.0	1.0	0.0	0.005	-1.0	0.0	0.0	-1.0	56.0	-1.0			169.66610097885132	0.004963874816894531
56	164.07828187942505	baseline_window	1	-1	29	99	0.0	1.0	0.0	0.005	-1.0	0.0	0.0	-1.0	56.0	-1.0			169.6710648536682	0.4794340133666992
56	164.55771589279175	stimulus_window	2	-1	12	99	0.0	1.0	0.0	0.005	-1.0	0.0	0.0	-1.0	56.0	-1.0			170.1504988670349	0.19979500770568848
56	164.75751090049744	response_window	3	-1	72	99	0.0	1.0	0.0	0.005	-1.0	0.0	0.0	-1.0	56.0	-1.0			170.3502938747406	1.2008841037750244
56	165.95839500427246	feedback_window	4	-1	18	99	0.0	1.0	0.0	0.005	-1.0	0.0	0.0	-1.0	56.0	-1.0			171.55117797851562	0.3004438877105713
56	166.25883889198303	ITI_window	5	-1	42	99	0.0	1.0	0.0	0.005	-1.0	0.0	0.0	-1.0	56.0	-1.0			171.8516218662262	0.7004499435424805
57	166.9592888355255	blockStart	0	-1	0	99	0.0	1.0	1.0	0.015000000000000003	-1.0	0.0	0.0	-1.0	57.0	-1.0			172.55207180976868	0.0037009716033935547
57	166.9629898071289	baseline_window	1	-1	29	99	0.0	1.0	1.0	0.015000000000000003	-1.0	0.0	0.0	-1.0	57.0	-1.0			172.55577278137207	0.4800682067871094
57	167.44305801391602	stimulus_window	2	-1	12	99	0.0	1.0	1.0	0.015000000000000003	-1.0	0.0	0.0	-1.0	57.0	-1.0			173.03584098815918	0.19985699653625488
57	167.64291501045227	response_window	3	-1	72	99	0.0	1.0	1.0	0.015000000000000003	-1.0	0.0	0.0	-1.0	57.0	-1.0			173.23569798469543	1.2011878490447998
57	168.84410285949707	feedback_window	4	-1	18	99	0.0	1.0	1.0	0.015000000000000003	-1.0	0.0	0.0	-1.0	57.0	-1.0			174.43688583374023	0.3000450134277344
57	169.1441478729248	ITI_window	5	-1	47	99	0.0	1.0	1.0	0.015000000000000003	-1.0	0.0	0.0	-1.0	57.0	-1.0			174.73693084716797	0.7836699485778809
58	169.92781782150269	blockStart	0	-1	0	99	0.0	0.0	0.0	0.0	-1.0	0.0	0.0	-1.0	58.0	-1.0			175.52060079574585	0.004019975662231445
58	169.93183779716492	baseline_window	1	-1	30	99	0.0	0.0	0.0	0.0	-1.0	0.0	0.0	-1.0	58.0	-1.0			175.52462077140808	0.49669909477233887
58	170.42853689193726	stimulus_window	2	-1	12	99	0.0	0.0	0.0	0.0	-1.0	0.0	0.0	-1.0	58.0	-1.0			176.02131986618042	0.20001006126403809
58	170.6285469532013	response_window	3	-1	72	99	0.0	0.0	0.0	0.0	-1.0	0.0	0.0	-1.0	58.0	-1.0			176.22132992744446	1.2009069919586182
58	171.8294539451599	feedback_window	4	-1	18	99	0.0	0.0	0.0	0.0	-1.0	0.0	0.0	-1.0	58.0	-1.0			177.42223691940308	0.30047607421875
58	172.12993001937866	ITI_window	5	-1	36	99	0.0	0.0	0.0	0.0	-1.0	0.0	0.0	-1.0	58.0	-1.0			177.72271299362183	0.5999839305877686
59	172.72991394996643	blockStart	0	-1	0	99	0.0	1.0	0.0	0.04	-1.0	0.0	0.0	-1.0	59.0	-1.0			178.3226969242096	0.003406047821044922
59	172.73331999778748	baseline_window	1	-1	30	99	0.0	1.0	0.0	0.04	-1.0	0.0	0.0	-1.0	59.0	-1.0			178.32610297203064	0.4971139430999756
59	173.23043394088745	stimulus_window	2	-1	12	99	0.0	1.0	0.0	0.04	-1.0	0.0	0.0	-1.0	59.0	-1.0			178.82321691513062	0.20055699348449707
59	173.43099093437195	response_window	3	-1	72	99	0.0	1.0	0.0	0.04	-1.0	0.0	0.0	-1.0	59.0	-1.0			179.0237739086151	1.2004120349884033
59	174.63140296936035	feedback_window	4	-1	18	99	0.0	1.0	0.0	0.04	-1.0	0.0	0.0	-1.0	59.0	-1.0			180.22418594360352	0.30057382583618164
59	174.93197679519653	ITI_window	5	-1	50	99	0.0	1.0	0.0	0.04	-1.0	0.0	0.0	-1.0	59.0	-1.0			180.5247597694397	0.8337690830230713
60	175.7657458782196	blockStart	0	-1	0	99	0.0	1.0	0.0	0.045000000000000005	-1.0	0.0	0.0	-1.0	60.0	-1.0			181.35852885246277	0.004169940948486328
60	175.7699158191681	baseline_window	1	-1	30	99	0.0	1.0	0.0	0.045000000000000005	-1.0	0.0	0.0	-1.0	60.0	-1.0			181.36269879341125	0.4961361885070801
60	176.26605200767517	stimulus_window	2	-1	12	99	0.0	1.0	0.0	0.045000000000000005	-1.0	0.0	0.0	-1.0	60.0	-1.0			181.85883498191833	0.2003469467163086
60	176.46639895439148	response_window	3	-1	72	99	0.0	1.0	0.0	0.045000000000000005	-1.0	0.0	0.0	-1.0	60.0	-1.0			182.05918192863464	1.2010788917541504
60	177.66747784614563	feedback_window	4	-1	18	99	0.0	1.0	0.0	0.045000000000000005	-1.0	0.0	0.0	-1.0	60.0	-1.0			183.2602608203888	0.2999560832977295
60	177.96743392944336	ITI_window	5	-1	47	99	0.0	1.0	0.0	0.045000000000000005	-1.0	0.0	0.0	-1.0	60.0	-1.0			183.56021690368652	0.7838499546051025
61	178.75128388404846	blockStart	0	-1	0	99	0.0	0.0	1.0	0.0	-1.0	0.0	0.0	-1.0	61.0	-1.0			184.34406685829163	0.003824949264526367
61	178.755108833313	baseline_window	1	-1	29	99	0.0	0.0	1.0	0.0	-1.0	0.0	0.0	-1.0	61.0	-1.0			184.34789180755615	0.48015403747558594
61	179.23526287078857	stimulus_window	2	-1	12	99	0.0	0.0	1.0	0.0	-1.0	0.0	0.0	-1.0	61.0	-1.0			184.82804584503174	0.20014095306396484
61	179.43540382385254	response_window	3	-1	72	99	0.0	0.0	1.0	0.0	-1.0	0.0	0.0	-1.0	61.0	-1.0			185.0281867980957	1.2007529735565186
61	180.63615679740906	feedback_window	4	-1	18	99	0.0	0.0	1.0	0.0	-1.0	0.0	0.0	-1.0	61.0	-1.0			186.22893977165222	0.30030012130737305
61	180.93645691871643	ITI_window	5	-1	53	99	0.0	0.0	1.0	0.0	-1.0	0.0	0.0	-1.0	61.0	-1.0			186.5292398929596	0.8834788799285889
62	181.81993579864502	blockStart	0	-1	0	99	0.0	1.0	0.0	0.025000000000000005	-1.0	0.0	0.0	-1.0	62.0	-1.0			187.41271877288818	0.0033102035522460938
62	181.82324600219727	baseline_window	1	-1	29	99	0.0	1.0	0.0	0.025000000000000005	-1.0	0.0	0.0	-1.0	62.0	-1.0			187.41602897644043	0.4808378219604492
62	182.30408382415771	stimulus_window	2	-1	12	99	0.0	1.0	0.0	0.025000000000000005	-1.0	0.0	0.0	-1.0	62.0	-1.0			187.89686679840088	0.20023012161254883
62	182.50431394577026	response_window	3	-1	72	99	0.0	1.0	0.0	0.025000000000000005	-1.0	0.0	0.0	-1.0	62.0	-1.0			188.09709692001343	1.200697898864746
62	183.705011844635	feedback_window	4	-1	18	99	0.0	1.0	0.0	0.025000000000000005	-1.0	0.0	0.0	-1.0	62.0	-1.0			189.29779481887817	0.30030298233032227
62	184.00531482696533	ITI_window	5	-1	44	99	0.0	1.0	0.0	0.025000000000000005	-1.0	0.0	0.0	-1.0	62.0	-1.0			189.5980978012085	0.733720064163208
63	184.73903489112854	blockStart	0	-1	0	99	0.0	0.0	0.0	0.0	-1.0	0.0	0.0	-1.0	63.0	-1.0			190.3318178653717	0.003984928131103516
63	184.74301981925964	baseline_window	1	-1	30	99	0.0	0.0	0.0	0.0	-1.0	0.0	0.0	-1.0	63.0	-1.0			190.3358027935028	0.4966881275177002
63	185.23970794677734	stimulus_window	2	-1	12	99	0.0	0.0	0.0	0.0	-1.0	0.0	0.0	-1.0	63.0	-1.0			190.8324909210205	0.1999528408050537
63	185.4396607875824	response_window	3	-1	72	99	0.0	0.0	0.0	0.0	-1.0	0.0	0.0	-1.0	63.0	-1.0			191.03244376182556	1.2008841037750244
63	186.64054489135742	feedback_window	4	-1	18	99	0.0	0.0	0.0	0.0	-1.0	0.0	0.0	-1.0	63.0	-1.0			192.2333278656006	0.30014991760253906
63	186.94069480895996	ITI_window	5	-1	47	99	0.0	0.0	0.0	0.0	-1.0	0.0	0.0	-1.0	63.0	-1.0			192.53347778320312	0.7838649749755859
64	187.72455978393555	blockStart	0	-1	0	99	0.0	0.0	0.0	0.0	-1.0	0.0	0.0	-1.0	64.0	-1.0			193.3173427581787	0.004250049591064453
64	187.7288098335266	baseline_window	1	-1	29	99	0.0	0.0	0.0	0.0	-1.0	0.0	0.0	-1.0	64.0	-1.0			193.32159280776978	0.47968602180480957
64	188.20849585533142	stimulus_window	2	-1	12	99	0.0	0.0	0.0	0.0	-1.0	0.0	0.0	-1.0	64.0	-1.0			193.80127882957458	0.20005202293395996
64	188.40854787826538	response_window	3	-1	72	99	0.0	0.0	0.0	0.0	-1.0	0.0	0.0	-1.0	64.0	-1.0			194.00133085250854	1.2008581161499023
64	189.60940599441528	feedback_window	4	-1	18	99	0.0	0.0	0.0	0.0	-1.0	0.0	0.0	-1.0	64.0	-1.0			195.20218896865845	0.3004128932952881
64	189.90981888771057	ITI_window	5	-1	56	99	0.0	0.0	0.0	0.0	-1.0	0.0	0.0	-1.0	64.0	-1.0			195.50260186195374	0.9337079524993896
65	190.84352684020996	blockStart	0	-1	0	99	0.0	0.0	1.0	0.0	-1.0	0.0	0.0	-1.0	65.0	-1.0			196.43630981445312	0.0032300949096679688
65	190.84675693511963	baseline_window	1	-1	29	99	0.0	0.0	1.0	0.0	-1.0	0.0	0.0	-1.0	65.0	-1.0			196.4395399093628	0.48065900802612305
65	191.32741594314575	stimulus_window	2	-1	12	99	0.0	0.0	1.0	0.0	-1.0	0.0	0.0	-1.0	65.0	-1.0			196.92019891738892	0.2002570629119873
65	191.52767300605774	response_window	3	-1	72	99	0.0	0.0	1.0	0.0	-1.0	0.0	0.0	-1.0	65.0	-1.0			197.1204559803009	1.200989007949829
65	192.72866201400757	feedback_window	4	-1	18	99	0.0	0.0	1.0	0.0	-1.0	0.0	0.0	-1.0	65.0	-1.0			198.32144498825073	0.3000938892364502
65	193.02875590324402	ITI_window	5	-1	45	99	0.0	0.0	1.0	0.0	-1.0	0.0	0.0	-1.0	65.0	-1.0			198.62153887748718	0.7503519058227539
66	193.77910780906677	blockStart	0	-1	0	99	0.0	1.0	1.0	0.05	-1.0	0.0	0.0	-1.0	66.0	-1.0			199.37189078330994	0.0036749839782714844
66	193.78278279304504	baseline_window	1	-1	29	99	0.0	1.0	1.0	0.05	-1.0	0.0	0.0	-1.0	66.0	-1.0			199.3755657672882	0.48038506507873535
66	194.26316785812378	stimulus_window	2	-1	12	99	0.0	1.0	1.0	0.05	-1.0	0.0	0.0	-1.0	66.0	-1.0			199.85595083236694	0.20022296905517578
66	194.46339082717896	response_window	3	-1	72	99	0.0	1.0	1.0	0.05	-1.0	0.0	0.0	-1.0	66.0	-1.0			200.05617380142212	1.2009360790252686
66	195.66432690620422	feedback_window	4	-1	18	99	0.0	1.0	1.0	0.05	-1.0	0.0	0.0	-1.0	66.0	-1.0			201.2571098804474	0.30026793479919434
66	195.96459484100342	ITI_window	5	-1	44	99	0.0	1.0	1.0	0.05	-1.0	0.0	0.0	-1.0	66.0	-1.0			201.55737781524658	0.7333650588989258
67	196.69795989990234	blockStart	0	-1	0	99	0.0	1.0	0.0	0.010000000000000002	-1.0	0.0	0.0	-1.0	67.0	-1.0			202.2907428741455	0.0022859573364257812
67	196.70024585723877	baseline_window	1	-1	30	99	0.0	1.0	0.0	0.010000000000000002	-1.0	0.0	0.0	-1.0	67.0	-1.0			202.29302883148193	0.49833106994628906
67	197.19857692718506	stimulus_window	2	-1	12	99	0.0	1.0	0.0	0.010000000000000002	-1.0	0.0	0.0	-1.0	67.0	-1.0			202.79135990142822	0.2002699375152588
67	197.39884686470032	response_window	3	-1	72	99	0.0	1.0	0.0	0.010000000000000002	-1.0	0.0	0.0	-1.0	67.0	-1.0			202.99162983894348	1.200793981552124
67	198.59964084625244	feedback_window	4	-1	18	99	0.0	1.0	0.0	0.010000000000000002	-1.0	0.0	0.0	-1.0	67.0	-1.0			204.1924238204956	0.30019497871398926
67	198.89983582496643	ITI_window	5	-1	57	99	0.0	1.0	0.0	0.010000000000000002	-1.0	0.0	0.0	-1.0	67.0	-1.0			204.4926187992096	0.9505481719970703
68	199.8503839969635	blockStart	0	-1	0	99	0.0	1.0	0.0	0.045000000000000005	-1.0	0.0	0.0	-1.0	68.0	-1.0			205.44316697120667	0.0036649703979492188
68	199.85404896736145	baseline_window	1	-1	30	99	0.0	1.0	0.0	0.045000000000000005	-1.0	0.0	0.0	-1.0	68.0	-1.0			205.44683194160461	0.4971120357513428
68	200.3511610031128	stimulus_window	2	-1	12	99	0.0	1.0	0.0	0.045000000000000005	-1.0	0.0	0.0	-1.0	68.0	-1.0			205.94394397735596	0.20011687278747559
68	200.55127787590027	response_window	3	-1	72	99	0.0	1.0	0.0	0.045000000000000005	-1.0	0.0	0.0	-1.0	68.0	-1.0			206.14406085014343	1.2009680271148682
68	201.75224590301514	feedback_window	4	-1	18	99	0.0	1.0	0.0	0.045000000000000005	-1.0	0.0	0.0	-1.0	68.0	-1.0			207.3450288772583	0.30022311210632324
68	202.05246901512146	ITI_window	5	-1	55	99	0.0	1.0	0.0	0.045000000000000005	-1.0	0.0	0.0	-1.0	68.0	-1.0			207.64525198936462	0.9170618057250977
69	202.96953082084656	blockStart	0	-1	0	99	0.0	1.0	0.0	0.04	-1.0	0.0	0.0	-1.0	69.0	-1.0			208.56231379508972	0.0039980411529541016
69	202.9735288619995	baseline_window	1	-1	29	99	0.0	1.0	0.0	0.04	-1.0	0.0	0.0	-1.0	69.0	-1.0			208.56631183624268	0.4798929691314697
69	203.45342183113098	stimulus_window	2	-1	12	99	0.0	1.0	0.0	0.04	-1.0	0.0	0.0	-1.0	69.0	-1.0			209.04620480537415	0.20022010803222656
69	203.6536419391632	response_window	3	-1	72	99	0.0	1.0	0.0	0.04	-1.0	0.0	0.0	-1.0	69.0	-1.0			209.24642491340637	1.200744867324829
69	204.85438680648804	feedback_window	4	-1	18	99	0.0	1.0	0.0	0.04	-1.0	0.0	0.0	-1.0	69.0	-1.0			210.4471697807312	0.3004121780395508
69	205.1547989845276	ITI_window	5	-1	57	99	0.0	1.0	0.0	0.04	-1.0	0.0	0.0	-1.0	69.0	-1.0			210.74758195877075	0.9504477977752686
70	206.10524678230286	blockStart	0	-1	0	99	0.0	0.0	0.0	0.0	-1.0	0.0	0.0	-1.0	70.0	-1.0			211.69802975654602	0.004260063171386719
70	206.10950684547424	baseline_window	1	-1	29	99	0.0	0.0	0.0	0.0	-1.0	0.0	0.0	-1.0	70.0	-1.0			211.7022898197174	0.4794909954071045
70	206.58899784088135	stimulus_window	2	-1	12	99	0.0	0.0	0.0	0.0	-1.0	0.0	0.0	-1.0	70.0	-1.0			212.1817808151245	0.2001359462738037
70	206.78913378715515	response_window	3	-1	72	99	0.0	0.0	0.0	0.0	-1.0	0.0	0.0	-1.0	70.0	-1.0			212.38191676139832	1.2009491920471191
70	207.99008297920227	feedback_window	4	-1	18	99	0.0	0.0	0.0	0.0	-1.0	0.0	0.0	-1.0	70.0	-1.0			213.58286595344543	0.3004429340362549
70	208.29052591323853	ITI_window	5	-1	39	99	0.0	0.0	0.0	0.0	-1.0	0.0	0.0	-1.0	70.0	-1.0			213.8833088874817	0.6499559879302979
71	208.94048190116882	blockStart	0	-1	0	99	0.0	0.0	1.0	0.0	-1.0	0.0	0.0	-1.0	71.0	-1.0			214.533264875412	0.0037679672241210938
71	208.94424986839294	baseline_window	1	-1	30	99	0.0	0.0	1.0	0.0	-1.0	0.0	0.0	-1.0	71.0	-1.0			214.5370328426361	0.496737003326416
71	209.44098687171936	stimulus_window	2	-1	12	99	0.0	0.0	1.0	0.0	-1.0	0.0	0.0	-1.0	71.0	-1.0			215.03376984596252	0.20035910606384277
71	209.6413459777832	response_window	3	-1	72	99	0.0	0.0	1.0	0.0	-1.0	0.0	0.0	-1.0	71.0	-1.0			215.23412895202637	1.2010579109191895
71	210.8424038887024	feedback_window	4	-1	18	99	0.0	0.0	1.0	0.0	-1.0	0.0	0.0	-1.0	71.0	-1.0			216.43518686294556	0.3001251220703125
71	211.1425290107727	ITI_window	5	-1	43	99	0.0	0.0	1.0	0.0	-1.0	0.0	0.0	-1.0	71.0	-1.0			216.73531198501587	0.7171437740325928
72	211.8596727848053	blockStart	0	-1	0	99	0.0	0.0	0.0	0.0	-1.0	0.0	0.0	-1.0	72.0	-1.0			217.45245575904846	0.003698110580444336
72	211.86337089538574	baseline_window	1	-1	29	99	0.0	0.0	0.0	0.0	-1.0	0.0	0.0	-1.0	72.0	-1.0			217.4561538696289	0.4803049564361572
72	212.3436758518219	stimulus_window	2	-1	12	99	0.0	0.0	0.0	0.0	-1.0	0.0	0.0	-1.0	72.0	-1.0			217.93645882606506	0.19995713233947754
72	212.54363298416138	response_window	3	-1	72	99	0.0	0.0	0.0	0.0	-1.0	0.0	0.0	-1.0	72.0	-1.0			218.13641595840454	1.2009730339050293
72	213.7446060180664	feedback_window	4	-1	18	99	0.0	0.0	0.0	0.0	-1.0	0.0	0.0	-1.0	72.0	-1.0			219.33738899230957	0.30007481575012207
72	214.04468083381653	ITI_window	5	-1	50	99	0.0	0.0	0.0	0.0	-1.0	0.0	0.0	-1.0	72.0	-1.0			219.6374638080597	0.8341209888458252
73	214.87880182266235	blockStart	0	-1	0	99	0.0	1.0	1.0	0.010000000000000002	-1.0	0.0	0.0	-1.0	73.0	-1.0			220.47158479690552	0.004597187042236328
73	214.8833990097046	baseline_window	1	-1	29	99	0.0	1.0	1.0	0.010000000000000002	-1.0	0.0	0.0	-1.0	73.0	-1.0			220.47618198394775	0.47908592224121094
73	215.3624849319458	stimulus_window	2	-1	12	99	0.0	1.0	1.0	0.010000000000000002	-1.0	0.0	0.0	-1.0	73.0	-1.0			220.95526790618896	0.20010805130004883
73	215.56259298324585	response_window	3	-1	72	99	0.0	1.0	1.0	0.010000000000000002	-1.0	0.0	0.0	-1.0	73.0	-1.0			221.155375957489	1.2009549140930176
73	216.76354789733887	feedback_window	4	-1	18	99	0.0	1.0	1.0	0.010000000000000002	-1.0	0.0	0.0	-1.0	73.0	-1.0			222.35633087158203	0.3001880645751953
73	217.06373596191406	ITI_window	5	-1	40	99	0.0	1.0	1.0	0.010000000000000002	-1.0	0.0	0.0	-1.0	73.0	-1.0			222.65651893615723	0.6671059131622314
74	217.7308418750763	blockStart	0	-1	0	99	0.0	0.0	0.0	0.0	-1.0	0.0	0.0	-1.0	74.0	-1.0			223.32362484931946	0.004415988922119141
74	217.7352578639984	baseline_window	1	-1	29	99	0.0	0.0	0.0	0.0	-1.0	0.0	0.0	-1.0	74.0	-1.0			223.32804083824158	0.47968196868896484
74	218.21493983268738	stimulus_window	2	-1	12	99	0.0	0.0	0.0	0.0	-1.0	0.0	0.0	-1.0	74.0	-1.0			223.80772280693054	0.20016813278198242
74	218.41510796546936	response_window	3	-1	72	99	0.0	0.0	0.0	0.0	-1.0	0.0	0.0	-1.0	74.0	-1.0			224.00789093971252	1.200650930404663
74	219.61575889587402	feedback_window	4	-1	18	99	0.0	0.0	0.0	0.0	-1.0	0.0	0.0	-1.0	74.0	-1.0			225.2085418701172	0.30008697509765625
74	219.91584587097168	ITI_window	5	-1	50	99	0.0	0.0	0.0	0.0	-1.0	0.0	0.0	-1.0	74.0	-1.0			225.50862884521484	0.8339760303497314
75	220.7498219013214	blockStart	0	-1	0	99	0.0	0.0	1.0	0.0	-1.0	0.0	0.0	-1.0	75.0	-1.0			226.34260487556458	0.00436711311340332
75	220.75418901443481	baseline_window	1	-1	30	99	0.0	0.0	1.0	0.0	-1.0	0.0	0.0	-1.0	75.0	-1.0			226.34697198867798	0.4960169792175293
75	221.25020599365234	stimulus_window	2	-1	12	99	0.0	0.0	1.0	0.0	-1.0	0.0	0.0	-1.0	75.0	-1.0			226.8429889678955	0.200394868850708
75	221.45060086250305	response_window	3	-1	71	99	0.0	0.0	1.0	0.0	-1.0	0.0	0.0	-1.0	75.0	-1.0			227.04338383674622	1.1841480731964111
75	222.63474893569946	feedback_window	4	-1	18	99	0.0	0.0	1.0	0.0	-1.0	0.0	0.0	-1.0	75.0	-1.0			228.22753190994263	0.3002040386199951
75	222.93495297431946	ITI_window	5	-1	54	99	0.0	0.0	1.0	0.0	-1.0	0.0	0.0	-1.0	75.0	-1.0			228.52773594856262	0.9002208709716797
76	223.83517384529114	blockStart	0	-1	0	99	0.0	1.0	0.0	0.015000000000000003	-1.0	0.0	0.0	-1.0	76.0	-1.0			229.4279568195343	0.004112958908081055
76	223.83928680419922	baseline_window	1	-1	30	99	0.0	1.0	0.0	0.015000000000000003	-1.0	0.0	0.0	-1.0	76.0	-1.0			229.43206977844238	0.49659109115600586
76	224.33587789535522	stimulus_window	2	-1	12	99	0.0	1.0	0.0	0.015000000000000003	-1.0	0.0	0.0	-1.0	76.0	-1.0			229.9286608695984	0.20026302337646484
76	224.5361409187317	response_window	3	-1	72	99	0.0	1.0	0.0	0.015000000000000003	-1.0	0.0	0.0	-1.0	76.0	-1.0			230.12892389297485	1.2008540630340576
76	225.73699498176575	feedback_window	4	-1	18	99	0.0	1.0	0.0	0.015000000000000003	-1.0	0.0	0.0	-1.0	76.0	-1.0			231.3297779560089	0.30014991760253906
76	226.0371448993683	ITI_window	5	-1	45	99	0.0	1.0	0.0	0.015000000000000003	-1.0	0.0	0.0	-1.0	76.0	-1.0			231.62992787361145	0.7501440048217773
77	226.78728890419006	blockStart	0	-1	0	99	0.0	0.0	0.0	0.0	-1.0	0.0	0.0	-1.0	77.0	-1.0			232.38007187843323	0.0036499500274658203
77	226.79093885421753	baseline_window	1	-1	29	99	0.0	0.0	0.0	0.0	-1.0	0.0	0.0	-1.0	77.0	-1.0			232.3837218284607	0.48052406311035156
77	227.27146291732788	stimulus_window	2	-1	12	99	0.0	0.0	0.0	0.0	-1.0	0.0	0.0	-1.0	77.0	-1.0			232.86424589157104	0.19993805885314941
77	227.47140097618103	response_window	3	-1	72	99	0.0	0.0	0.0	0.0	-1.0	0.0	0.0	-1.0	77.0	-1.0			233.0641839504242	1.2009530067443848
77	228.67235398292542	feedback_window	4	-1	18	99	0.0	0.0	0.0	0.0	-1.0	0.0	0.0	-1.0	77.0	-1.0			234.26513695716858	0.30028581619262695
77	228.97263979911804	ITI_window	5	-1	59	99	0.0	0.0	0.0	0.0	-1.0	0.0	0.0	-1.0	77.0	-1.0			234.5654227733612	0.9837300777435303
78	229.95636987686157	blockStart	0	-1	0	99	0.0	0.0	0.0	0.0	-1.0	0.0	0.0	-1.0	78.0	-1.0			235.54915285110474	0.0033071041107177734
78	229.9596769809723	baseline_window	1	-1	29	99	0.0	0.0	0.0	0.0	-1.0	0.0	0.0	-1.0	78.0	-1.0			235.55245995521545	0.4808189868927002
78	230.440495967865	stimulus_window	2	-1	12	99	0.0	0.0	0.0	0.0	-1.0	0.0	0.0	-1.0	78.0	-1.0			236.03327894210815	0.20000004768371582
78	230.6404960155487	response_window	3	-1	72	99	0.0	0.0	0.0	0.0	-1.0	0.0	0.0	-1.0	78.0	-1.0			236.23327898979187	1.200990915298462
78	231.84148693084717	feedback_window	4	-1	18	99	0.0	0.0	0.0	0.0	-1.0	0.0	0.0	-1.0	78.0	-1.0			237.43426990509033	0.3004109859466553
78	232.14189791679382	ITI_window	5	-1	37	99	0.0	0.0	0.0	0.0	-1.0	0.0	0.0	-1.0	78.0	-1.0			237.734680891037	0.6170930862426758
79	232.7589910030365	blockStart	0	-1	0	99	0.0	0.0	0.0	0.0	-1.0	0.0	0.0	-1.0	79.0	-1.0			238.35177397727966	0.004355907440185547
79	232.76334691047668	baseline_window	1	-1	29	99	0.0	0.0	0.0	0.0	-1.0	0.0	0.0	-1.0	79.0	-1.0			238.35612988471985	0.47944092750549316
79	233.24278783798218	stimulus_window	2	-1	12	99	0.0	0.0	0.0	0.0	-1.0	0.0	0.0	-1.0	79.0	-1.0			238.83557081222534	0.2001490592956543
79	233.44293689727783	response_window	3	-1	72	99	0.0	0.0	0.0	0.0	-1.0	0.0	0.0	-1.0	79.0	-1.0			239.035719871521	1.2008190155029297
79	234.64375591278076	feedback_window	4	-1	18	99	0.0	0.0	0.0	0.0	-1.0	0.0	0.0	-1.0	79.0	-1.0			240.23653888702393	0.3002009391784668
79	234.94395685195923	ITI_window	5	-1	46	99	0.0	0.0	0.0	0.0	-1.0	0.0	0.0	-1.0	79.0	-1.0			240.5367398262024	0.7673170566558838
80	235.7112739086151	blockStart	0	-1	0	99	0.0	0.0	0.0	0.0	-1.0	0.0	0.0	-1.0	80.0	-1.0			241.30405688285828	0.004187107086181641
80	235.7154610157013	baseline_window	1	-1	29	99	0.0	0.0	0.0	0.0	-1.0	0.0	0.0	-1.0	80.0	-1.0			241.30824398994446	0.47962379455566406
80	236.19508481025696	stimulus_window	2	-1	12	99	0.0	0.0	0.0	0.0	-1.0	0.0	0.0	-1.0	80.0	-1.0			241.78786778450012	0.20000720024108887
80	236.39509201049805	response_window	3	-1	72	99	0.0	0.0	0.0	0.0	-1.0	0.0	0.0	-1.0	80.0	-1.0			241.9878749847412	1.2008578777313232
80	237.59594988822937	feedback_window	4	-1	18	99	0.0	0.0	0.0	0.0	-1.0	0.0	0.0	-1.0	80.0	-1.0			243.18873286247253	0.30026698112487793
80	237.89621686935425	ITI_window	5	-1	59	99	0.0	0.0	0.0	0.0	-1.0	0.0	0.0	-1.0	80.0	-1.0			243.4889998435974	0.9837639331817627
81	238.879980802536	blockStart	0	-1	0	99	0.0	0.0	0.0	0.0	-1.0	0.0	0.0	-1.0	81.0	-1.0			244.47276377677917	0.0034492015838623047
81	238.88343000411987	baseline_window	1	-1	29	99	0.0	0.0	0.0	0.0	-1.0	0.0	0.0	-1.0	81.0	-1.0			244.47621297836304	0.48052000999450684
81	239.36395001411438	stimulus_window	2	-1	12	99	0.0	0.0	0.0	0.0	-1.0	0.0	0.0	-1.0	81.0	-1.0			244.95673298835754	0.20029878616333008
81	239.5642488002777	response_window	3	-1	72	99	0.0	0.0	0.0	0.0	-1.0	0.0	0.0	-1.0	81.0	-1.0			245.15703177452087	1.200423002243042
81	240.76467180252075	feedback_window	4	-1	18	99	0.0	0.0	0.0	0.0	-1.0	0.0	0.0	-1.0	81.0	-1.0			246.35745477676392	0.30043506622314453
81	241.0651068687439	ITI_window	5	-1	57	99	0.0	0.0	0.0	0.0	-1.0	0.0	0.0	-1.0	81.0	-1.0			246.65788984298706	0.9503700733184814
82	242.01547694206238	blockStart	0	-1	0	99	0.0	1.0	1.0	0.030000000000000006	-1.0	0.0	0.0	-1.0	82.0	-1.0			247.60825991630554	0.003507852554321289
82	242.0189847946167	baseline_window	1	-1	29	99	0.0	1.0	1.0	0.030000000000000006	-1.0	0.0	0.0	-1.0	82.0	-1.0			247.61176776885986	0.4805471897125244
82	242.49953198432922	stimulus_window	2	-1	12	99	0.0	1.0	1.0	0.030000000000000006	-1.0	0.0	0.0	-1.0	82.0	-1.0			248.0923149585724	0.20024895668029785
82	242.69978094100952	response_window	3	-1	72	99	0.0	1.0	1.0	0.030000000000000006	-1.0	0.0	0.0	-1.0	82.0	-1.0			248.29256391525269	1.2007200717926025
82	243.90050101280212	feedback_window	4	-1	18	99	0.0	1.0	1.0	0.030000000000000006	-1.0	0.0	0.0	-1.0	82.0	-1.0			249.4932839870453	0.30025386810302734
82	244.20075488090515	ITI_window	5	-1	43	99	0.0	1.0	1.0	0.030000000000000006	-1.0	0.0	0.0	-1.0	82.0	-1.0			249.79353785514832	0.7170219421386719
83	244.91777682304382	blockStart	0	-1	0	99	0.0	1.0	1.0	0.005	-1.0	0.0	0.0	-1.0	83.0	-1.0			250.510559797287	0.0028841495513916016
83	244.92066097259521	baseline_window	1	-1	30	99	0.0	1.0	1.0	0.005	-1.0	0.0	0.0	-1.0	83.0	-1.0			250.51344394683838	0.49780702590942383
83	245.41846799850464	stimulus_window	2	-1	12	99	0.0	1.0	1.0	0.005	-1.0	0.0	0.0	-1.0	83.0	-1.0			251.0112509727478	0.2002248764038086
83	245.61869287490845	response_window	3	-1	72	99	0.0	1.0	1.0	0.005	-1.0	0.0	0.0	-1.0	83.0	-1.0			251.2114758491516	1.2011449337005615
83	246.819837808609	feedback_window	4	-1	18	99	0.0	1.0	1.0	0.005	-1.0	0.0	0.0	-1.0	83.0	-1.0			252.41262078285217	0.30012011528015137
83	247.11995792388916	ITI_window	5	-1	52	99	0.0	1.0	1.0	0.005	-1.0	0.0	0.0	-1.0	83.0	-1.0			252.71274089813232	0.8668038845062256
84	247.98676180839539	blockStart	0	-1	0	99	0.0	0.0	0.0	0.0	-1.0	0.0	0.0	-1.0	84.0	-1.0			253.57954478263855	0.00351715087890625
84	247.9902789592743	baseline_window	1	-1	29	99	0.0	0.0	0.0	0.0	-1.0	0.0	0.0	-1.0	84.0	-1.0			253.58306193351746	0.48058390617370605
84	248.470862865448	stimulus_window	2	-1	12	99	0.0	0.0	0.0	0.0	-1.0	0.0	0.0	-1.0	84.0	-1.0			254.06364583969116	0.2000589370727539
84	248.67092180252075	response_window	3	-1	72	99	0.0	0.0	0.0	0.0	-1.0	0.0	0.0	-1.0	84.0	-1.0			254.26370477676392	1.2010431289672852
84	249.87196493148804	feedback_window	4	-1	18	99	0.0	0.0	0.0	0.0	-1.0	0.0	0.0	-1.0	84.0	-1.0			255.4647479057312	0.3000359535217285
84	250.17200088500977	ITI_window	5	-1	38	99	0.0	0.0	0.0	0.0	-1.0	0.0	0.0	-1.0	84.0	-1.0			255.76478385925293	0.6338019371032715
85	250.80580282211304	blockStart	0	-1	0	99	0.0	0.0	1.0	0.0	-1.0	0.0	0.0	-1.0	85.0	-1.0			256.3985857963562	0.004191160202026367
85	250.80999398231506	baseline_window	1	-1	29	99	0.0	0.0	1.0	0.0	-1.0	0.0	0.0	-1.0	85.0	-1.0			256.4027769565582	0.47959399223327637
85	251.28958797454834	stimulus_window	2	-1	12	99	0.0	0.0	1.0	0.0	-1.0	0.0	0.0	-1.0	85.0	-1.0			256.8823709487915	0.20012998580932617
85	251.48971796035767	response_window	3	-1	72	99	0.0	0.0	1.0	0.0	-1.0	0.0	0.0	-1.0	85.0	-1.0			257.08250093460083	1.201253890991211
85	252.69097185134888	feedback_window	4	-1	18	99	0.0	0.0	1.0	0.0	-1.0	0.0	0.0	-1.0	85.0	-1.0			258.28375482559204	0.2999429702758789
85	252.99091482162476	ITI_window	5	-1	58	99	0.0	0.0	1.0	0.0	-1.0	0.0	0.0	-1.0	85.0	-1.0			258.5836977958679	0.967149019241333
86	253.9580638408661	blockStart	0	-1	0	99	0.0	1.0	0.0	0.005	-1.0	0.0	0.0	-1.0	86.0	-1.0			259.55084681510925	0.004183053970336914
86	253.96224689483643	baseline_window	1	-1	29	99	0.0	1.0	0.0	0.005	-1.0	0.0	0.0	-1.0	86.0	-1.0			259.5550298690796	0.4796481132507324
86	254.44189500808716	stimulus_window	2	-1	12	99	0.0	1.0	0.0	0.005	-1.0	0.0	0.0	-1.0	86.0	-1.0			260.0346779823303	0.20043587684631348
86	254.64233088493347	response_window	3	-1	72	99	0.0	1.0	0.0	0.005	-1.0	0.0	0.0	-1.0	86.0	-1.0			260.23511385917664	1.2007930278778076
86	255.84312391281128	feedback_window	4	-1	18	99	0.0	1.0	0.0	0.005	-1.0	0.0	0.0	-1.0	86.0	-1.0			261.43590688705444	0.30019402503967285
86	256.14331793785095	ITI_window	5	-1	38	99	0.0	1.0	0.0	0.005	-1.0	0.0	0.0	-1.0	86.0	-1.0			261.7361009120941	0.633612871170044
87	256.776930809021	blockStart	0	-1	0	99	0.0	1.0	0.0	0.005	-1.0	0.0	0.0	-1.0	87.0	-1.0			262.36971378326416	0.00442814826965332
87	256.78135895729065	baseline_window	1	-1	29	99	0.0	1.0	0.0	0.005	-1.0	0.0	0.0	-1.0	87.0	-1.0			262.3741419315338	0.47916102409362793
87	257.2605199813843	stimulus_window	2	-1	12	99	0.0	1.0	0.0	0.005	-1.0	0.0	0.0	-1.0	87.0	-1.0			262.85330295562744	0.2003188133239746
87	257.46083879470825	response_window	3	-1	72	99	0.0	1.0	0.0	0.005	-1.0	0.0	0.0	-1.0	87.0	-1.0			263.0536217689514	1.2009320259094238
87	258.6617708206177	feedback_window	4	-1	18	99	0.0	1.0	0.0	0.005	-1.0	0.0	0.0	-1.0	87.0	-1.0			264.25455379486084	0.3000671863555908
87	258.96183800697327	ITI_window	5	-1	46	99	0.0	1.0	0.0	0.005	-1.0	0.0	0.0	-1.0	87.0	-1.0			264.55462098121643	0.7672147750854492
88	259.7290527820587	blockStart	0	-1	0	99	0.0	1.0	0.0	0.010000000000000002	-1.0	0.0	0.0	-1.0	88.0	-1.0			265.3218357563019	0.004458189010620117
88	259.73351097106934	baseline_window	1	-1	30	99	0.0	1.0	0.0	0.010000000000000002	-1.0	0.0	0.0	-1.0	88.0	-1.0			265.3262939453125	0.496107816696167
88	260.2296187877655	stimulus_window	2	-1	12	99	0.0	1.0	0.0	0.010000000000000002	-1.0	0.0	0.0	-1.0	88.0	-1.0			265.82240176200867	0.20042014122009277
88	260.4300389289856	response_window	3	-1	72	99	0.0	1.0	0.0	0.010000000000000002	-1.0	0.0	0.0	-1.0	88.0	-1.0			266.02282190322876	1.2007660865783691
88	261.63080501556396	feedback_window	4	-1	18	99	0.0	1.0	0.0	0.010000000000000002	-1.0	0.0	0.0	-1.0	88.0	-1.0			267.22358798980713	0.3005259037017822
88	261.93133091926575	ITI_window	5	-1	48	99	0.0	1.0	0.0	0.010000000000000002	-1.0	0.0	0.0	-1.0	88.0	-1.0			267.5241138935089	0.7999820709228516
89	262.7313129901886	blockStart	0	-1	0	99	0.0	0.0	0.0	0.0	-1.0	0.0	0.0	-1.0	89.0	-1.0			268.32409596443176	0.0035669803619384766
89	262.73487997055054	baseline_window	1	-1	30	99	0.0	0.0	0.0	0.0	-1.0	0.0	0.0	-1.0	89.0	-1.0			268.3276629447937	0.49699902534484863
89	263.2318789958954	stimulus_window	2	-1	12	99	0.0	0.0	0.0	0.0	-1.0	0.0	0.0	-1.0	89.0	-1.0			268.82466197013855	0.2002098560333252
89	263.4320888519287	response_window	3	-1	71	99	0.0	0.0	0.0	0.0	-1.0	0.0	0.0	-1.0	89.0	-1.0			269.0248718261719	1.1843740940093994
89	264.6164629459381	feedback_window	4	-1	18	99	0.0	0.0	0.0	0.0	-1.0	0.0	0.0	-1.0	89.0	-1.0			270.2092459201813	0.30015087127685547
89	264.91661381721497	ITI_window	5	-1	52	99	0.0	0.0	0.0	0.0	-1.0	0.0	0.0	-1.0	89.0	-1.0			270.50939679145813	0.8669490814208984
90	265.78356289863586	blockStart	0	-1	0	99	0.0	1.0	1.0	0.05	-1.0	0.0	0.0	-1.0	90.0	-1.0			271.376345872879	0.0043659210205078125
90	265.7879288196564	baseline_window	1	-1	29	99	0.0	1.0	1.0	0.05	-1.0	0.0	0.0	-1.0	90.0	-1.0			271.38071179389954	0.4797201156616211
90	266.267648935318	stimulus_window	2	-1	12	99	0.0	1.0	1.0	0.05	-1.0	0.0	0.0	-1.0	90.0	-1.0			271.86043190956116	0.20018696784973145
90	266.4678359031677	response_window	3	-1	72	99	0.0	1.0	1.0	0.05	-1.0	0.0	0.0	-1.0	90.0	-1.0			272.0606188774109	1.2009079456329346
90	267.66874384880066	feedback_window	4	-1	18	99	0.0	1.0	1.0	0.05	-1.0	0.0	0.0	-1.0	90.0	-1.0			273.2615268230438	0.29982495307922363
90	267.9685688018799	ITI_window	5	-1	43	99	0.0	1.0	1.0	0.05	-1.0	0.0	0.0	-1.0	90.0	-1.0			273.56135177612305	0.7171871662139893
91	268.6857559680939	blockStart	0	-1	0	99	0.0	0.0	0.0	0.0	-1.0	0.0	0.0	-1.0	91.0	-1.0			274.27853894233704	0.0031609535217285156
91	268.6889169216156	baseline_window	1	-1	29	99	0.0	0.0	0.0	0.0	-1.0	0.0	0.0	-1.0	91.0	-1.0			274.28169989585876	0.4807400703430176
91	269.1696569919586	stimulus_window	2	-1	12	99	0.0	0.0	0.0	0.0	-1.0	0.0	0.0	-1.0	91.0	-1.0			274.7624399662018	0.20027780532836914
91	269.369934797287	response_window	3	-1	72	99	0.0	0.0	0.0	0.0	-1.0	0.0	0.0	-1.0	91.0	-1.0			274.96271777153015	1.2011010646820068
91	270.571035861969	feedback_window	4	-1	18	99	0.0	0.0	0.0	0.0	-1.0	0.0	0.0	-1.0	91.0	-1.0			276.16381883621216	0.3002891540527344
91	270.87132501602173	ITI_window	5	-1	47	99	0.0	0.0	0.0	0.0	-1.0	0.0	0.0	-1.0	91.0	-1.0			276.4641079902649	0.7834029197692871
92	271.654727935791	blockStart	0	-1	0	99	0.0	0.0	1.0	0.0	-1.0	0.0	0.0	-1.0	92.0	-1.0			277.2475109100342	0.0038368701934814453
92	271.6585648059845	baseline_window	1	-1	30	99	0.0	0.0	1.0	0.0	-1.0	0.0	0.0	-1.0	92.0	-1.0			277.25134778022766	0.4968681335449219
92	272.1554329395294	stimulus_window	2	-1	12	99	0.0	0.0	1.0	0.0	-1.0	0.0	0.0	-1.0	92.0	-1.0			277.7482159137726	0.20010590553283691
92	272.35553884506226	response_window	3	-1	72	99	0.0	0.0	1.0	0.0	-1.0	0.0	0.0	-1.0	92.0	-1.0			277.9483218193054	1.200747013092041
92	273.5562858581543	feedback_window	4	-1	18	99	0.0	0.0	1.0	0.0	-1.0	0.0	0.0	-1.0	92.0	-1.0			279.14906883239746	0.30016303062438965
92	273.8564488887787	ITI_window	5	-1	40	99	0.0	0.0	1.0	0.0	-1.0	0.0	0.0	-1.0	92.0	-1.0			279.44923186302185	0.6671030521392822
93	274.52355194091797	blockStart	0	-1	0	99	0.0	1.0	1.0	0.020000000000000004	-1.0	0.0	0.0	-1.0	93.0	-1.0			280.11633491516113	0.003042936325073242
93	274.52659487724304	baseline_window	1	-1	30	99	0.0	1.0	1.0	0.020000000000000004	-1.0	0.0	0.0	-1.0	93.0	-1.0			280.1193778514862	0.4976029396057129
93	275.02419781684875	stimulus_window	2	-1	12	99	0.0	1.0	1.0	0.020000000000000004	-1.0	0.0	0.0	-1.0	93.0	-1.0			280.6169807910919	0.20027709007263184
93	275.2244749069214	response_window	3	-1	72	99	0.0	1.0	1.0	0.020000000000000004	-1.0	0.0	0.0	-1.0	93.0	-1.0			280.81725788116455	1.200773000717163
93	276.42524790763855	feedback_window	4	-1	18	99	0.0	1.0	1.0	0.020000000000000004	-1.0	0.0	0.0	-1.0	93.0	-1.0			282.0180308818817	0.30039501190185547
93	276.7256429195404	ITI_window	5	-1	38	99	0.0	1.0	1.0	0.020000000000000004	-1.0	0.0	0.0	-1.0	93.0	-1.0			282.31842589378357	0.6335370540618896
94	277.3591799736023	blockStart	0	-1	0	99	0.0	0.0	1.0	0.0	-1.0	0.0	0.0	-1.0	94.0	-1.0			282.95196294784546	0.0045130252838134766
94	277.3636929988861	baseline_window	1	-1	29	99	0.0	0.0	1.0	0.0	-1.0	0.0	0.0	-1.0	94.0	-1.0			282.9564759731293	0.4795107841491699
94	277.8432037830353	stimulus_window	2	-1	12	99	0.0	0.0	1.0	0.0	-1.0	0.0	0.0	-1.0	94.0	-1.0			283.43598675727844	0.20021700859069824
94	278.043420791626	response_window	3	-1	72	99	0.0	0.0	1.0	0.0	-1.0	0.0	0.0	-1.0	94.0	-1.0			283.63620376586914	1.2008671760559082
94	279.2442879676819	feedback_window	4	-1	18	99	0.0	0.0	1.0	0.0	-1.0	0.0	0.0	-1.0	94.0	-1.0			284.83707094192505	0.3003048896789551
94	279.54459285736084	ITI_window	5	-1	48	99	0.0	0.0	1.0	0.0	-1.0	0.0	0.0	-1.0	94.0	-1.0			285.137375831604	0.8001971244812012
95	280.34478998184204	blockStart	0	-1	0	99	0.0	0.0	1.0	0.0	-1.0	0.0	0.0	-1.0	95.0	-1.0			285.9375729560852	0.005571842193603516
95	280.35036182403564	baseline_window	1	-1	30	99	0.0	0.0	1.0	0.0	-1.0	0.0	0.0	-1.0	95.0	-1.0			285.9431447982788	0.4949769973754883
95	280.84533882141113	stimulus_window	2	-1	12	99	0.0	0.0	1.0	0.0	-1.0	0.0	0.0	-1.0	95.0	-1.0			286.4381217956543	0.2001490592956543
95	281.0454878807068	response_window	3	-1	72	99	0.0	0.0	1.0	0.0	-1.0	0.0	0.0	-1.0	95.0	-1.0			286.63827085494995	1.2009799480438232
95	282.2464678287506	feedback_window	4	-1	18	99	0.0	0.0	1.0	0.0	-1.0	0.0	0.0	-1.0	95.0	-1.0			287.8392508029938	0.300260066986084
95	282.5467278957367	ITI_window	5	-1	37	99	0.0	0.0	1.0	0.0	-1.0	0.0	0.0	-1.0	95.0	-1.0			288.13951086997986	0.616981029510498
96	283.1637089252472	blockStart	0	-1	0	99	0.0	1.0	0.0	0.020000000000000004	-1.0	0.0	0.0	-1.0	96.0	-1.0			288.75649189949036	0.0034890174865722656
96	283.16719794273376	baseline_window	1	-1	29	99	0.0	1.0	0.0	0.020000000000000004	-1.0	0.0	0.0	-1.0	96.0	-1.0			288.75998091697693	0.4802539348602295
96	283.647451877594	stimulus_window	2	-1	12	99	0.0	1.0	0.0	0.020000000000000004	-1.0	0.0	0.0	-1.0	96.0	-1.0			289.24023485183716	0.2003030776977539
96	283.84775495529175	response_window	3	-1	68	99	0.0	1.0	0.0	0.020000000000000004	-1.0	0.0	0.0	-1.0	96.0	-1.0			289.4405379295349	1.2009880542755127
96	285.04874300956726	feedback_window	4	-1	18	99	0.0	1.0	0.0	0.020000000000000004	-1.0	0.0	0.0	-1.0	96.0	-1.0			290.6415259838104	0.2999238967895508
96	285.3486669063568	ITI_window	5	-1	38	99	0.0	1.0	0.0	0.020000000000000004	-1.0	0.0	0.0	-1.0	96.0	-1.0			290.9414498806	0.6337869167327881
97	285.9824538230896	blockStart	0	-1	0	99	0.0	1.0	1.0	0.015000000000000003	-1.0	0.0	0.0	-1.0	97.0	-1.0			291.57523679733276	0.0033299922943115234
97	285.9857838153839	baseline_window	1	-1	30	99	0.0	1.0	1.0	0.015000000000000003	-1.0	0.0	0.0	-1.0	97.0	-1.0			291.5785667896271	0.49724602699279785
97	286.4830298423767	stimulus_window	2	-1	12	99	0.0	1.0	1.0	0.015000000000000003	-1.0	0.0	0.0	-1.0	97.0	-1.0			292.0758128166199	0.20002198219299316
97	286.6830518245697	response_window	3	-1	71	99	0.0	1.0	1.0	0.015000000000000003	-1.0	0.0	0.0	-1.0	97.0	-1.0			292.27583479881287	1.1843430995941162
97	287.8673949241638	feedback_window	4	-1	18	99	0.0	1.0	1.0	0.015000000000000003	-1.0	0.0	0.0	-1.0	97.0	-1.0			293.460177898407	0.3002638816833496
97	288.16765880584717	ITI_window	5	-1	53	99	0.0	1.0	1.0	0.015000000000000003	-1.0	0.0	0.0	-1.0	97.0	-1.0			293.76044178009033	0.883573055267334
98	289.0512318611145	blockStart	0	-1	0	99	0.0	0.0	1.0	0.0	-1.0	0.0	0.0	-1.0	98.0	-1.0			294.64401483535767	0.003484964370727539
98	289.05471682548523	baseline_window	1	-1	29	99	0.0	0.0	1.0	0.0	-1.0	0.0	0.0	-1.0	98.0	-1.0			294.6474997997284	0.4806020259857178
98	289.53531885147095	stimulus_window	2	-1	12	99	0.0	0.0	1.0	0.0	-1.0	0.0	0.0	-1.0	98.0	-1.0			295.1281018257141	0.19986701011657715
98	289.7351858615875	response_window	3	-1	72	99	0.0	0.0	1.0	0.0	-1.0	0.0	0.0	-1.0	98.0	-1.0			295.3279688358307	1.2011990547180176
98	290.93638491630554	feedback_window	4	-1	18	99	0.0	0.0	1.0	0.0	-1.0	0.0	0.0	-1.0	98.0	-1.0			296.5291678905487	0.30007100105285645
98	291.2364559173584	ITI_window	5	-1	55	99	0.0	0.0	1.0	0.0	-1.0	0.0	0.0	-1.0	98.0	-1.0			296.82923889160156	0.917382001876831
99	292.15383791923523	blockStart	0	-1	0	99	0.0	0.0	0.0	0.0	-1.0	0.0	0.0	-1.0	99.0	-1.0			297.7466208934784	0.002613067626953125
99	292.1564509868622	baseline_window	1	-1	29	99	0.0	0.0	0.0	0.0	-1.0	0.0	0.0	-1.0	99.0	-1.0			297.74923396110535	0.4809138774871826
99	292.63736486434937	stimulus_window	2	-1	12	99	0.0	0.0	0.0	0.0	-1.0	0.0	0.0	-1.0	99.0	-1.0			298.23014783859253	0.20028305053710938
99	292.8376479148865	response_window	3	-1	72	99	0.0	0.0	0.0	0.0	-1.0	0.0	0.0	-1.0	99.0	-1.0			298.43043088912964	1.2009859085083008
99	294.0386338233948	feedback_window	4	-1	18	99	0.0	0.0	0.0	0.0	-1.0	0.0	0.0	-1.0	99.0	-1.0			299.63141679763794	0.30028510093688965
99	294.33891892433167	ITI_window	5	-1	58	99	0.0	0.0	0.0	0.0	-1.0	0.0	0.0	-1.0	99.0	-1.0			299.93170189857483	0.9673490524291992
100	295.30626797676086	blockStart	0	-1	12283	99	0.0	1.0	0.0	0.025000000000000005	-1.0	1.0	0.0	-1.0	100.0	-1.0			300.899050951004	7699.619765043259
100	7994.9260330200195	baseline_window	1	-1	150	99	0.0	1.0	0.0	0.025000000000000005	-1.0	1.0	0.0	-1.0	100.0	-1.0			8000.518815994263	2.5017759799957275
100	7997.427809000015	stimulus_window	2	-1	12	99	0.0	1.0	0.0	0.025000000000000005	-1.0	1.0	0.0	-1.0	100.0	-1.0			8003.020591974258	0.20031189918518066
100	7997.6281208992	response_window	3	-1	72	99	0.0	1.0	0.0	0.025000000000000005	-1.0	1.0	0.0	-1.0	100.0	-1.0			8003.220903873444	1.2008240222930908
100	7998.8289449214935	feedback_window	4	-1	18	99	0.0	1.0	0.0	0.025000000000000005	-1.0	1.0	0.0	-1.0	100.0	-1.0			8004.421727895737	0.3000960350036621
100	7999.129040956497	ITI_window	5	-1	39	99	0.0	1.0	0.0	0.025000000000000005	-1.0	1.0	0.0	-1.0	100.0	-1.0			8004.72182393074	0.6672868728637695
101	7999.796327829361	blockStart	0	-1	0	99	0.0	0.0	1.0	0.0	-1.0	1.0	0.0	-1.0	101.0	-1.0			8005.389110803604	0.0063800811767578125
101	7999.802707910538	baseline_window	1	-1	27	99	0.0	0.0	1.0	0.0	-1.0	1.0	0.0	-1.0	101.0	-1.0			8005.395490884781	0.4603559970855713
101	8000.263063907623	stimulus_window	2	-1	12	99	0.0	0.0	1.0	0.0	-1.0	1.0	0.0	-1.0	101.0	-1.0			8005.8558468818665	0.20037603378295898
101	8000.463439941406	response_window	3	-1	71	99	0.0	0.0	1.0	0.0	-1.0	1.0	0.0	-1.0	101.0	-1.0			8006.056222915649	1.1843938827514648
