trial_nr	onset	event_type	phase	response	nr_frames	flicker_speed	onset_abs	duration
0	0.008270025253295898	stim	0		0.0	134.0	41.85690903663635	0.0020749568939208984
0	0.010344982147216797	stim	1		0.0	134.0	41.85898399353027	0.0010390281677246094
0	0.011384010314941406	stim	2		1709.0	134.0	41.860023021698	14.238476037979126
0	1.4912919998168945	pulse	2	t		134.0	43.33993101119995	
0	2.9917290210723877	pulse	2	t		134.0	44.840368032455444	
0	4.491780042648315	pulse	2	t		134.0	46.34041905403137	
0	5.991955041885376	pulse	2	t		134.0	47.84059405326843	
0	7.491734981536865	pulse	2	t		134.0	49.34037399291992	
0	8.983325004577637	response	2	b		134.0	50.83196401596069	
0	8.99160099029541	pulse	2	t		134.0	50.84024000167847	
0	10.491617918014526	pulse	2	t		134.0	52.34025692939758	
0	11.991570949554443	pulse	2	t		134.0	53.8402099609375	
0	13.483382940292358	response	2	b		134.0	55.332021951675415	
0	13.491654872894287	pulse	2	t		134.0	55.340293884277344	
1	14.249860048294067	stim	0		90.0	134.0	56.098499059677124	0.7499489784240723
1	14.99163007736206	pulse	0	t		134.0	56.84026908874512	
1	14.99980902671814	stim	1		1800.0	134.0	56.848448038101196	14.999663829803467
1	16.49123501777649	pulse	1	t		134.0	58.339874029159546	
1	17.991575002670288	pulse	1	t		134.0	59.840214014053345	
1	18.72452998161316	response	1	b		134.0	60.573168992996216	
1	19.491148948669434	pulse	1	t		134.0	61.33978796005249	
1	20.99160599708557	pulse	1	t		134.0	62.84024500846863	
1	22.49157691001892	pulse	1	t		134.0	64.34021592140198	
1	23.474946975708008	response	1	b		134.0	65.32358598709106	
1	23.991581916809082	pulse	1	t		134.0	65.84022092819214	
1	25.49158787727356	pulse	1	t		134.0	67.34022688865662	
1	26.991601943969727	pulse	1	t		134.0	68.84024095535278	
1	28.491572856903076	pulse	1	t		134.0	70.34021186828613	
1	28.8911190032959	response	1	b		134.0	70.73975801467896	
1	29.991533041000366	pulse	1	t		134.0	71.84017205238342	
1	29.999472856521606	stim	2		1711.0	134.0	71.84811186790466	14.258175134658813
1	31.491581916809082	pulse	2	t		134.0	73.34022092819214	
1	32.99154996871948	pulse	2	t		134.0	74.84018898010254	
1	34.199506998062134	response	2	b		134.0	76.04814600944519	
1	34.49154090881348	pulse	2	t		134.0	76.34017992019653	
1	35.99148893356323	pulse	2	t		134.0	77.84012794494629	
1	37.491523027420044	pulse	2	t		134.0	79.3401620388031	
1	38.83311986923218	response	2	b		134.0	80.68175888061523	
1	38.99151086807251	pulse	2	t		134.0	80.84014987945557	
1	40.49107789993286	pulse	2	t		134.0	82.33971691131592	
1	41.99108695983887	pulse	2	t		134.0	83.83972597122192	
1	43.016550064086914	response	2	b		134.0	84.86518907546997	
1	43.49102592468262	pulse	2	t		134.0	85.33966493606567	
2	44.25764799118042	stim	0		89.0	134.0	86.10628700256348	0.7417058944702148
2	44.991060972213745	pulse	0	t		134.0	86.8396999835968	
2	44.999353885650635	stim	1		1800.0	134.0	86.84799289703369	15.000424146652222
2	46.49144697189331	pulse	1	t		134.0	88.34008598327637	
2	47.99148392677307	pulse	1	t		134.0	89.84012293815613	
2	49.24140906333923	response	1	b		134.0	91.09004807472229	
2	49.49107503890991	pulse	1	t		134.0	91.33971405029297	
2	50.99106788635254	pulse	1	t		134.0	92.8397068977356	
2	52.49117684364319	pulse	1	t		134.0	94.33981585502625	
2	53.282679080963135	response	1	b		134.0	95.13131809234619	
2	53.990999937057495	pulse	1	t		134.0	95.83963894844055	
2	55.490959882736206	pulse	1	t		134.0	97.33959889411926	
2	56.99140501022339	pulse	1	t		134.0	98.84004402160645	
2	58.491410970687866	pulse	1	t		134.0	100.34004998207092	
2	58.924341917037964	response	1	b		134.0	100.77298092842102	
2	59.99147605895996	pulse	1	t		134.0	101.84011507034302	
2	59.999778032302856	stim	2		1711.0	134.0	101.84841704368591	14.258437871932983
2	61.49123287200928	pulse	2	t		134.0	103.33987188339233	
2	62.99150490760803	pulse	2	t		134.0	104.84014391899109	
2	64.49148607254028	pulse	2	t		134.0	106.34012508392334	
2	65.9915509223938	pulse	2	t		134.0	107.84018993377686	
2	67.49142789840698	pulse	2	t		134.0	109.34006690979004	
2	68.99140906333923	pulse	2	t		134.0	110.84004807472229	
2	70.49133086204529	pulse	2	t		134.0	112.33996987342834	
2	71.99142503738403	pulse	2	t		134.0	113.84006404876709	
2	73.49142098426819	pulse	2	t		134.0	115.34005999565125	
3	74.25821590423584	stim	0		89.0	134.0	116.1068549156189	0.7414360046386719
3	74.99138307571411	pulse	0	t		134.0	116.84002208709717	
3	74.99965190887451	stim	1		1801.0	134.0	116.84829092025757	15.007862091064453
3	76.49134492874146	pulse	1	t		134.0	118.33998394012451	
3	77.99096202850342	pulse	1	t		134.0	119.83960103988647	
3	79.49089884757996	pulse	1	t		134.0	121.33953785896301	
3	80.9913239479065	pulse	1	t		134.0	122.83996295928955	
3	82.49128794670105	pulse	1	t		134.0	124.3399269580841	
3	83.99131608009338	pulse	1	t		134.0	125.83995509147644	
3	85.49133706092834	pulse	1	t		134.0	127.3399760723114	
3	86.99131989479065	pulse	1	t		134.0	128.8399589061737	
3	88.49132204055786	pulse	1	t		134.0	130.33996105194092	
3	89.99092507362366	pulse	1	t		134.0	131.8395640850067	
3	90.00751399993896	stim	2		1710.0	134.0	131.85615301132202	14.249876976013184
3	91.49092197418213	pulse	2	t		134.0	133.33956098556519	
3	92.99091291427612	pulse	2	t		134.0	134.83955192565918	
3	94.49083590507507	pulse	2	t		134.0	136.33947491645813	
3	95.9908549785614	pulse	2	t		134.0	137.83949398994446	
3	97.4908139705658	pulse	2	t		134.0	139.33945298194885	
3	98.99082899093628	pulse	2	t		134.0	140.83946800231934	
3	100.49081897735596	pulse	2	t		134.0	142.339457988739	
3	101.99084401130676	pulse	2	t		134.0	143.83948302268982	
3	103.49082207679749	pulse	2	t		134.0	145.33946108818054	
4	104.25739097595215	stim	0		89.0	134.0	146.1060299873352	0.7416539192199707
4	104.99083590507507	pulse	0	t		134.0	146.83947491645813	
4	104.99904489517212	stim	1		1800.0	134.0	146.84768390655518	15.000362157821655
4	106.49134707450867	pulse	1	t		134.0	148.33998608589172	
4	107.99128103256226	pulse	1	t		134.0	149.8399200439453	
4	109.49117398262024	pulse	1	t		134.0	151.3398129940033	
4	110.9911789894104	pulse	1	t		134.0	152.83981800079346	
4	112.4911630153656	pulse	1	t		134.0	154.33980202674866	
4	113.9912269115448	pulse	1	t		134.0	155.83986592292786	
4	115.49116396903992	pulse	1	t		134.0	157.33980298042297	
4	116.9913899898529	pulse	1	t		134.0	158.84002900123596	
4	118.49110984802246	pulse	1	t		134.0	160.33974885940552	
4	119.99116802215576	pulse	1	t		134.0	161.83980703353882	
4	119.99940705299377	stim	2		1711.0	134.0	161.84804606437683	14.257872819900513
4	121.49074792861938	pulse	2	t		134.0	163.33938694000244	
4	122.99081492424011	pulse	2	t		134.0	164.83945393562317	
4	124.49078392982483	pulse	2	t		134.0	166.33942294120789	
4	125.99111199378967	pulse	2	t		134.0	167.83975100517273	
4	127.49072694778442	pulse	2	t		134.0	169.33936595916748	
4	128.99070596694946	pulse	2	t		134.0	170.83934497833252	
4	130.49067902565002	pulse	2	t		134.0	172.33931803703308	
4	131.99070191383362	pulse	2	t		134.0	173.83934092521667	
4	133.49073100090027	pulse	2	t		134.0	175.33937001228333	
5	134.2572798728943	stim	0		89.0	134.0	176.10591888427734	0.7416281700134277
5	134.99065494537354	pulse	0	t		134.0	176.8392939567566	
5	134.99890804290771	stim	1		1800.0	134.0	176.84754705429077	14.999949932098389
5	136.4906759262085	pulse	1	t		134.0	178.33931493759155	
5	137.99070596694946	pulse	1	t		134.0	179.83934497833252	
5	139.4906280040741	pulse	1	t		134.0	181.33926701545715	
5	140.99102187156677	pulse	1	t		134.0	182.83966088294983	
5	142.49062085151672	pulse	1	t		134.0	184.33925986289978	
5	143.99067091941833	pulse	1	t		134.0	185.8393099308014	
5	145.49064707756042	pulse	1	t		134.0	187.33928608894348	
5	146.9906029701233	pulse	1	t		134.0	188.83924198150635	
5	148.49062299728394	pulse	1	t		134.0	190.339262008667	
5	149.9906349182129	pulse	1	t		134.0	191.83927392959595	
5	149.9988579750061	stim	2		1711.0	134.0	191.84749698638916	14.258697032928467
5	151.490581035614	pulse	2	t		134.0	193.33922004699707	
5	152.9905469417572	pulse	2	t		134.0	194.83918595314026	
5	154.49056196212769	pulse	2	t		134.0	196.33920097351074	
5	155.99051594734192	pulse	2	t		134.0	197.83915495872498	
5	157.4909908771515	pulse	2	t		134.0	199.33962988853455	
5	158.99096393585205	pulse	2	t		134.0	200.8396029472351	
5	160.4909908771515	pulse	2	t		134.0	202.33962988853455	
5	161.99090194702148	pulse	2	t		134.0	203.83954095840454	
5	163.4909679889679	pulse	2	t		134.0	205.33960700035095	
6	164.25755500793457	stim	0		89.0	134.0	206.10619401931763	0.7412610054016113
6	164.99047994613647	pulse	0	t		134.0	206.83911895751953	
6	164.99881601333618	stim	1		1800.0	134.0	206.84745502471924	14.999933004379272
6	166.4905300140381	pulse	1	t		134.0	208.33916902542114	
6	167.99053192138672	pulse	1	t		134.0	209.83917093276978	
6	169.4904909133911	pulse	1	t		134.0	211.33912992477417	
6	170.99050402641296	pulse	1	t		134.0	212.83914303779602	
6	172.49103784561157	pulse	1	t		134.0	214.33967685699463	
6	173.9908549785614	pulse	1	t		134.0	215.83949398994446	
6	175.49052786827087	pulse	1	t		134.0	217.33916687965393	
6	176.99055290222168	pulse	1	t		134.0	218.83919191360474	
6	178.49047303199768	pulse	1	t		134.0	220.33911204338074	
6	179.99087190628052	pulse	1	t		134.0	221.83951091766357	
6	179.99874901771545	stim	2		1711.0	134.0	221.8473880290985	14.258311033248901
6	181.49047899246216	pulse	2	t		134.0	223.33911800384521	
6	182.99048495292664	pulse	2	t		134.0	224.8391239643097	
6	184.49046206474304	pulse	2	t		134.0	226.3391010761261	
6	185.99056601524353	pulse	2	t		134.0	227.8392050266266	
6	187.49043989181519	pulse	2	t		134.0	229.33907890319824	
6	188.99047899246216	pulse	2	t		134.0	230.83911800384521	
6	190.49043607711792	pulse	2	t		134.0	232.33907508850098	
6	191.99044799804688	pulse	2	t		134.0	233.83908700942993	
6	193.49037194252014	pulse	2	t		134.0	235.3390109539032	
7	194.25706005096436	stim	0		89.0	134.0	236.1056990623474	0.7416439056396484
7	194.9908049106598	pulse	0	t		134.0	236.83944392204285	
7	194.998703956604	stim	1		1801.0	134.0	236.84734296798706	15.008245944976807
7	196.4903609752655	pulse	1	t		134.0	238.33899998664856	
7	197.99039387702942	pulse	1	t		134.0	239.83903288841248	
7	199.4903450012207	pulse	1	t		134.0	241.33898401260376	
7	200.99037384986877	pulse	1	t		134.0	242.83901286125183	
7	202.49036288261414	pulse	1	t		134.0	244.3390018939972	
7	203.99035692214966	pulse	1	t		134.0	245.83899593353271	
7	205.4903690814972	pulse	1	t		134.0	247.33900809288025	
7	206.99040007591248	pulse	1	t		134.0	248.83903908729553	
7	208.49078106880188	pulse	1	t		134.0	250.33942008018494	
7	209.99035501480103	pulse	1	t		134.0	251.83899402618408	
7	210.0069499015808	stim	2		1710.0	134.0	251.85558891296387	14.250303030014038
7	211.49034094810486	pulse	2	t		134.0	253.33897995948792	
7	212.99076199531555	pulse	2	t		134.0	254.8394010066986	
7	214.4903280735016	pulse	2	t		134.0	256.33896708488464	
7	215.99029803276062	pulse	2	t		134.0	257.8389370441437	
7	217.49036407470703	pulse	2	t		134.0	259.3390030860901	
7	218.9903130531311	pulse	2	t		134.0	260.83895206451416	
7	220.4902698993683	pulse	2	t		134.0	262.33890891075134	
7	221.9906849861145	pulse	2	t		134.0	263.83932399749756	
7	223.4907329082489	pulse	2	t		134.0	265.33937191963196	
8	224.25725293159485	stim	0		89.0	134.0	266.1058919429779	0.7416980266571045
8	224.9906349182129	pulse	0	t		134.0	266.83927392959595	
8	224.99895095825195	stim	1		1801.0	134.0	266.847589969635	15.008340120315552
8	226.4907350540161	pulse	1	t		134.0	268.33937406539917	
8	227.99038696289062	pulse	1	t		134.0	269.8390259742737	
8	229.4906129837036	pulse	1	t		134.0	271.33925199508667	
8	230.99064707756042	pulse	1	t		134.0	272.8392860889435	
8	232.4902319908142	pulse	1	t		134.0	274.33887100219727	
8	233.9902219772339	pulse	1	t		134.0	275.83886098861694	
8	235.49026489257812	pulse	1	t		134.0	277.3389039039612	
8	236.99023604393005	pulse	1	t		134.0	278.8388750553131	
8	238.49034595489502	pulse	1	t		134.0	280.3389849662781	
8	239.99024295806885	pulse	1	t		134.0	281.8388819694519	
8	240.0072910785675	stim	2		1710.0	134.0	281.85593008995056	14.257808923721313
8	241.4902000427246	pulse	2	t		134.0	283.33883905410767	
8	242.9906198978424	pulse	2	t		134.0	284.83925890922546	
8	244.49014806747437	pulse	2	t		134.0	286.3387870788574	
8	245.99012804031372	pulse	2	t		134.0	287.8387670516968	
8	247.49051785469055	pulse	2	t		134.0	289.3391568660736	
