trial_nr	onset	event_type	phase	response	nr_frames	trial_type	stim_dur	oneOverF_texture_path	dot_color_timings_   0	dot_color_timings_   1	dot_color_timings_   2	dot_color_timings_   3	dot_color_timings_   4	dot_color_timings_   5	dot_color_timings_   6	dot_color_timings_   7	dot_color_timings_   8	dot_color_timings_   9	dot_color_timings_  10	dot_color_timings_  11	dot_color_timings_  12	dot_color_timings_  13	dot_color_timings_  14	dot_color_timings_  15	dot_color_timings_  16	dot_color_timings_  17	dot_color_timings_  18	dot_color_timings_  19	dot_color_timings_  20	dot_color_timings_  21	dot_color_timings_  22	dot_color_timings_  23	dot_color_timings_  24	dot_color_timings_  25	dot_color_timings_  26	dot_color_timings_  27	dot_color_timings_  28	dot_color_timings_  29	dot_color_timings_  30	dot_color_timings_  31	dot_color_timings_  32	dot_color_timings_  33	dot_color_timings_  34	dot_color_timings_  35	dot_color_timings_  36	dot_color_timings_  37	dot_color_timings_  38	dot_color_timings_  39	dot_color_timings_  40	dot_color_timings_  41	dot_color_timings_  42	dot_color_timings_  43	dot_color_timings_  44	dot_color_timings_  45	dot_color_timings_  46	dot_color_timings_  47	dot_color_timings_  48	dot_color_timings_  49	dot_color_timings_  50	dot_color_timings_  51	dot_color_timings_  52	dot_color_timings_  53	dot_color_timings_  54	dot_color_timings_  55	dot_color_timings_  56	dot_color_timings_  57	dot_color_timings_  58	dot_color_timings_  59	dot_color_timings_  60	dot_color_timings_  61	dot_color_timings_  62	dot_color_timings_  63	dot_color_timings_  64	dot_color_timings_  65	dot_color_timings_  66	dot_color_timings_  67	dot_color_timings_  68	dot_color_timings_  69	dot_color_timings_  70	dot_color_timings_  71	dot_color_timings_  72	dot_color_timings_  73	dot_color_timings_  74	dot_color_timings_  75	dot_color_timings_  76	dot_color_timings_  77	dot_color_timings_  78	dot_color_timings_  79	dot_color_timings_  80	dot_color_timings_  81	dot_color_timings_  82	dot_color_timings_  83	dot_color_timings_  84	dot_color_timings_  85	dot_color_timings_  86	dot_color_timings_  87	dot_color_timings_  88	dot_color_timings_  89	dot_color_timings_  90	dot_color_timings_  91	dot_color_timings_  92	dot_color_timings_  93	dot_color_timings_  94	dot_color_timings_  95	dot_color_timings_  96	dot_color_timings_  97	dot_color_timings_  98	dot_color_timings_  99	dot_color_timings_ 100	dot_color_timings_ 101	onset_abs	duration
0	0.00021409988403320312	pulse	0	t		dur	0.0	./textures/oneOverF_texture_1_1024_1.bmp	265.0	784.0	1137.0	1549.0	1947.0	2546.0	2814.0	3192.0	3637.0	4037.0	4574.0	5038.0	5311.0	5764.0	6304.0	6699.0	7081.0	7506.0	8025.0	8253.0	8702.0	9264.0	9626.0	9924.0	10548.0	10897.0	11356.0	11671.0	12164.0	12627.0	12859.0	13399.0	13700.0	14258.0	14552.0	14970.0	15526.0	15957.0	16219.0	16834.0	17128.0	17595.0	18002.0	18372.0	18753.0	19208.0	19619.0	20047.0	20460.0	20980.0	21250.0	21808.0	22286.0	22519.0	23130.0	23497.0	23985.0	24412.0	24623.0	25228.0	25645.0	26090.0	26441.0	26758.0	27147.0	27736.0	28086.0	28566.0	28861.0	29439.0	29849.0	30180.0	30706.0	31019.0	31465.0	31822.0	32361.0	32803.0	33157.0	33484.0	33945.0	34420.0	34694.0	35326.0	35599.0	35997.0	36537.0	36898.0	37312.0	37774.0	38250.0	38535.0	38898.0	39521.0	39940.0	40158.0	40634.0	41159.0	41606.0	41847.0	42348.0	42736.0	12.410736083984375	
0	0.17165112495422363	stim	0		0.0	dur	0.0	./textures/oneOverF_texture_1_1024_1.bmp	265	784	1137	1549	1947	2546	2814	3192	3637	4037	4574	5038	5311	5764	6304	6699	7081	7506	8025	8253	8702	9264	9626	9924	10548	10897	11356	11671	12164	12627	12859	13399	13700	14258	14552	14970	15526	15957	16219	16834	17128	17595	18002	18372	18753	19208	19619	20047	20460	20980	21250	21808	22286	22519	23130	23497	23985	24412	24623	25228	25645	26090	26441	26758	27147	27736	28086	28566	28861	29439	29849	30180	30706	31019	31465	31822	32361	32803	33157	33484	33945	34420	34694	35326	35599	35997	36537	36898	37312	37774	38250	38535	38898	39521	39940	40158	40634	41159	41606	41847	42348	42736	12.582173109054565	0.025383949279785156
0	0.1970350742340088	stim	1		0.0	dur	0.0	./textures/oneOverF_texture_1_1024_1.bmp	265	784	1137	1549	1947	2546	2814	3192	3637	4037	4574	5038	5311	5764	6304	6699	7081	7506	8025	8253	8702	9264	9626	9924	10548	10897	11356	11671	12164	12627	12859	13399	13700	14258	14552	14970	15526	15957	16219	16834	17128	17595	18002	18372	18753	19208	19619	20047	20460	20980	21250	21808	22286	22519	23130	23497	23985	24412	24623	25228	25645	26090	26441	26758	27147	27736	28086	28566	28861	29439	29849	30180	30706	31019	31465	31822	32361	32803	33157	33484	33945	34420	34694	35326	35599	35997	36537	36898	37312	37774	38250	38535	38898	39521	39940	40158	40634	41159	41606	41847	42348	42736	12.60755705833435	0.015085935592651367
0	0.21212100982666016	stim	2		384.0	dur	0.0	./textures/oneOverF_texture_1_1024_1.bmp	265	784	1137	1549	1947	2546	2814	3192	3637	4037	4574	5038	5311	5764	6304	6699	7081	7506	8025	8253	8702	9264	9626	9924	10548	10897	11356	11671	12164	12627	12859	13399	13700	14258	14552	14970	15526	15957	16219	16834	17128	17595	18002	18372	18753	19208	19619	20047	20460	20980	21250	21808	22286	22519	23130	23497	23985	24412	24623	25228	25645	26090	26441	26758	27147	27736	28086	28566	28861	29439	29849	30180	30706	31019	31465	31822	32361	32803	33157	33484	33945	34420	34694	35326	35599	35997	36537	36898	37312	37774	38250	38535	38898	39521	39940	40158	40634	41159	41606	41847	42348	42736	12.622642993927002	2.6689400672912598
0	1.3302061557769775	pulse	2	t		dur	0.0	./textures/oneOverF_texture_1_1024_1.bmp	265	784	1137	1549	1947	2546	2814	3192	3637	4037	4574	5038	5311	5764	6304	6699	7081	7506	8025	8253	8702	9264	9626	9924	10548	10897	11356	11671	12164	12627	12859	13399	13700	14258	14552	14970	15526	15957	16219	16834	17128	17595	18002	18372	18753	19208	19619	20047	20460	20980	21250	21808	22286	22519	23130	23497	23985	24412	24623	25228	25645	26090	26441	26758	27147	27736	28086	28566	28861	29439	29849	30180	30706	31019	31465	31822	32361	32803	33157	33484	33945	34420	34694	35326	35599	35997	36537	36898	37312	37774	38250	38535	38898	39521	39940	40158	40634	41159	41606	41847	42348	42736	13.74072813987732	
0	2.6602060794830322	pulse	2	t		dur	0.0	./textures/oneOverF_texture_1_1024_1.bmp	265	784	1137	1549	1947	2546	2814	3192	3637	4037	4574	5038	5311	5764	6304	6699	7081	7506	8025	8253	8702	9264	9626	9924	10548	10897	11356	11671	12164	12627	12859	13399	13700	14258	14552	14970	15526	15957	16219	16834	17128	17595	18002	18372	18753	19208	19619	20047	20460	20980	21250	21808	22286	22519	23130	23497	23985	24412	24623	25228	25645	26090	26441	26758	27147	27736	28086	28566	28861	29439	29849	30180	30706	31019	31465	31822	32361	32803	33157	33484	33945	34420	34694	35326	35599	35997	36537	36898	37312	37774	38250	38535	38898	39521	39940	40158	40634	41159	41606	41847	42348	42736	15.070728063583374	
1	2.88106107711792	stim	0		0.0	isi	2.0	./textures/oneOverF_texture_1_1024_6.bmp	409	842	1081	1719	1978	2514	2888	3257	3732	4083	4511	4923	5453	5845	6221	6620	6994	7512	7962	8365	8764	9249	9591	10066	10409	10789	11336	11684	12139	12462	13036	13383	13870	14194	14540	15135	15422	15818	16346	16767	17219	17645	18036	18471	18956	19267	19605	20117	20401	21027	21470	21769	22318	22725	23007	23440	23930	24207	24602	25169	25668	25867	26427	26813	27292	27706	28041	28615	28835	29365	29728	30220	30658	30906	31426	31758	32317	32676	33015	33590	33904	34363	34885	35272	35555	36058	36560	36826	37258	37678	38110	38473	38945	39345	39745	40317	40739	41020	41554	41984	42478	42868	15.291583061218262	0.01459193229675293
1	2.895653009414673	stim	1		96.0	isi	2.0	./textures/oneOverF_texture_1_1024_6.bmp	409	842	1081	1719	1978	2514	2888	3257	3732	4083	4511	4923	5453	5845	6221	6620	6994	7512	7962	8365	8764	9249	9591	10066	10409	10789	11336	11684	12139	12462	13036	13383	13870	14194	14540	15135	15422	15818	16346	16767	17219	17645	18036	18471	18956	19267	19605	20117	20401	21027	21470	21769	22318	22725	23007	23440	23930	24207	24602	25169	25668	25867	26427	26813	27292	27706	28041	28615	28835	29365	29728	30220	30658	30906	31426	31758	32317	32676	33015	33590	33904	34363	34885	35272	35555	36058	36560	36826	37258	37678	38110	38473	38945	39345	39745	40317	40739	41020	41554	41984	42478	42868	15.306174993515015	0.043827056884765625
1	2.9394800662994385	stim	2		384.0	isi	2.0	./textures/oneOverF_texture_1_1024_6.bmp	409	842	1081	1719	1978	2514	2888	3257	3732	4083	4511	4923	5453	5845	6221	6620	6994	7512	7962	8365	8764	9249	9591	10066	10409	10789	11336	11684	12139	12462	13036	13383	13870	14194	14540	15135	15422	15818	16346	16767	17219	17645	18036	18471	18956	19267	19605	20117	20401	21027	21470	21769	22318	22725	23007	23440	23930	24207	24602	25169	25668	25867	26427	26813	27292	27706	28041	28615	28835	29365	29728	30220	30658	30906	31426	31758	32317	32676	33015	33590	33904	34363	34885	35272	35555	36058	36560	36826	37258	37678	38110	38473	38945	39345	39745	40317	40739	41020	41554	41984	42478	42868	15.35000205039978	2.675297975540161
1	3.9902122020721436	pulse	2	t		isi	2.0	./textures/oneOverF_texture_1_1024_6.bmp	409	842	1081	1719	1978	2514	2888	3257	3732	4083	4511	4923	5453	5845	6221	6620	6994	7512	7962	8365	8764	9249	9591	10066	10409	10789	11336	11684	12139	12462	13036	13383	13870	14194	14540	15135	15422	15818	16346	16767	17219	17645	18036	18471	18956	19267	19605	20117	20401	21027	21470	21769	22318	22725	23007	23440	23930	24207	24602	25169	25668	25867	26427	26813	27292	27706	28041	28615	28835	29365	29728	30220	30658	30906	31426	31758	32317	32676	33015	33590	33904	34363	34885	35272	35555	36058	36560	36826	37258	37678	38110	38473	38945	39345	39745	40317	40739	41020	41554	41984	42478	42868	16.400734186172485	
1	5.320204973220825	pulse	2	t		isi	2.0	./textures/oneOverF_texture_1_1024_6.bmp	409	842	1081	1719	1978	2514	2888	3257	3732	4083	4511	4923	5453	5845	6221	6620	6994	7512	7962	8365	8764	9249	9591	10066	10409	10789	11336	11684	12139	12462	13036	13383	13870	14194	14540	15135	15422	15818	16346	16767	17219	17645	18036	18471	18956	19267	19605	20117	20401	21027	21470	21769	22318	22725	23007	23440	23930	24207	24602	25169	25668	25867	26427	26813	27292	27706	28041	28615	28835	29365	29728	30220	30658	30906	31426	31758	32317	32676	33015	33590	33904	34363	34885	35272	35555	36058	36560	36826	37258	37678	38110	38473	38945	39345	39745	40317	40739	41020	41554	41984	42478	42868	17.730726957321167	
2	5.6147780418396	stim	0		0.0	dur	4.0	./textures/oneOverF_texture_colored_1_1024_6.bmp	281	692	1225	1616	2150	2504	2883	3332	3835	4105	4547	4989	5437	5817	6320	6771	7181	7388	7875	8400	8710	9106	9567	10012	10385	10792	11353	11595	12002	12427	12990	13383	13806	14111	14703	15095	15500	15846	16409	16652	17093	17589	18109	18458	18826	19181	19670	20182	20520	20928	21473	21858	22203	22539	22924	23449	23953	24399	24688	25029	25636	25968	26326	26895	27138	27594	28011	28572	29039	29375	29797	30097	30681	31109	31495	31973	32306	32749	33107	33556	34007	34437	34725	35232	35665	36067	36397	36816	37346	37853	38041	38651	39023	39323	39928	40326	40569	41035	41455	41964	42359	42820	18.02530002593994	0.013757944107055664
2	5.628535985946655	stim	1		96.0	dur	4.0	./textures/oneOverF_texture_colored_1_1024_6.bmp	281	692	1225	1616	2150	2504	2883	3332	3835	4105	4547	4989	5437	5817	6320	6771	7181	7388	7875	8400	8710	9106	9567	10012	10385	10792	11353	11595	12002	12427	12990	13383	13806	14111	14703	15095	15500	15846	16409	16652	17093	17589	18109	18458	18826	19181	19670	20182	20520	20928	21473	21858	22203	22539	22924	23449	23953	24399	24688	25029	25636	25968	26326	26895	27138	27594	28011	28572	29039	29375	29797	30097	30681	31109	31495	31973	32306	32749	33107	33556	34007	34437	34725	35232	35665	36067	36397	36816	37346	37853	38041	38651	39023	39323	39928	40326	40569	41035	41455	41964	42359	42820	18.039057970046997	0.028007984161376953
2	5.656543970108032	stim	2		384.0	dur	4.0	./textures/oneOverF_texture_colored_1_1024_6.bmp	281	692	1225	1616	2150	2504	2883	3332	3835	4105	4547	4989	5437	5817	6320	6771	7181	7388	7875	8400	8710	9106	9567	10012	10385	10792	11353	11595	12002	12427	12990	13383	13806	14111	14703	15095	15500	15846	16409	16652	17093	17589	18109	18458	18826	19181	19670	20182	20520	20928	21473	21858	22203	22539	22924	23449	23953	24399	24688	25029	25636	25968	26326	26895	27138	27594	28011	28572	29039	29375	29797	30097	30681	31109	31495	31973	32306	32749	33107	33556	34007	34437	34725	35232	35665	36067	36397	36816	37346	37853	38041	38651	39023	39323	39928	40326	40569	41035	41455	41964	42359	42820	18.067065954208374	2.658717155456543
2	6.650205135345459	pulse	2	t		dur	4.0	./textures/oneOverF_texture_colored_1_1024_6.bmp	281	692	1225	1616	2150	2504	2883	3332	3835	4105	4547	4989	5437	5817	6320	6771	7181	7388	7875	8400	8710	9106	9567	10012	10385	10792	11353	11595	12002	12427	12990	13383	13806	14111	14703	15095	15500	15846	16409	16652	17093	17589	18109	18458	18826	19181	19670	20182	20520	20928	21473	21858	22203	22539	22924	23449	23953	24399	24688	25029	25636	25968	26326	26895	27138	27594	28011	28572	29039	29375	29797	30097	30681	31109	31495	31973	32306	32749	33107	33556	34007	34437	34725	35232	35665	36067	36397	36816	37346	37853	38041	38651	39023	39323	39928	40326	40569	41035	41455	41964	42359	42820	19.0607271194458	
2	7.980205059051514	pulse	2	t		dur	4.0	./textures/oneOverF_texture_colored_1_1024_6.bmp	281	692	1225	1616	2150	2504	2883	3332	3835	4105	4547	4989	5437	5817	6320	6771	7181	7388	7875	8400	8710	9106	9567	10012	10385	10792	11353	11595	12002	12427	12990	13383	13806	14111	14703	15095	15500	15846	16409	16652	17093	17589	18109	18458	18826	19181	19670	20182	20520	20928	21473	21858	22203	22539	22924	23449	23953	24399	24688	25029	25636	25968	26326	26895	27138	27594	28011	28572	29039	29375	29797	30097	30681	31109	31495	31973	32306	32749	33107	33556	34007	34437	34725	35232	35665	36067	36397	36816	37346	37853	38041	38651	39023	39323	39928	40326	40569	41035	41455	41964	42359	42820	20.390727043151855	
3	8.315261125564575	stim	0		0.0	isi	8.0	./textures/oneOverF_texture_1_1024_8.bmp	477	683	1164	1685	1940	2368	2955	3389	3790	4089	4609	5018	5389	5858	6241	6725	7135	7587	7864	8392	8776	9188	9691	10132	10356	10781	11353	11634	12044	12610	12945	13330	13707	14197	14630	15169	15487	15949	16267	16733	17266	17568	17939	18333	18728	19332	19689	20200	20525	21039	21369	21812	22128	22711	23124	23508	23943	24405	24780	25167	25665	25890	26319	26921	27317	27687	28116	28453	28892	29247	29754	30248	30485	31137	31460	31855	32357	32605	33219	33580	33936	34305	34749	35161	35545	36135	36594	36932	37206	37765	38247	38473	38904	39379	39808	40241	40571	41164	41492	41821	42449	42895	20.725783109664917	0.014024972915649414
3	8.329286098480225	stim	1		96.0	isi	8.0	./textures/oneOverF_texture_1_1024_8.bmp	477	683	1164	1685	1940	2368	2955	3389	3790	4089	4609	5018	5389	5858	6241	6725	7135	7587	7864	8392	8776	9188	9691	10132	10356	10781	11353	11634	12044	12610	12945	13330	13707	14197	14630	15169	15487	15949	16267	16733	17266	17568	17939	18333	18728	19332	19689	20200	20525	21039	21369	21812	22128	22711	23124	23508	23943	24405	24780	25167	25665	25890	26319	26921	27317	27687	28116	28453	28892	29247	29754	30248	30485	31137	31460	31855	32357	32605	33219	33580	33936	34305	34749	35161	35545	36135	36594	36932	37206	37765	38247	38473	38904	39379	39808	40241	40571	41164	41492	41821	42449	42895	20.739808082580566	0.04433703422546387
3	8.373623132705688	stim	2		384.0	isi	8.0	./textures/oneOverF_texture_1_1024_8.bmp	477	683	1164	1685	1940	2368	2955	3389	3790	4089	4609	5018	5389	5858	6241	6725	7135	7587	7864	8392	8776	9188	9691	10132	10356	10781	11353	11634	12044	12610	12945	13330	13707	14197	14630	15169	15487	15949	16267	16733	17266	17568	17939	18333	18728	19332	19689	20200	20525	21039	21369	21812	22128	22711	23124	23508	23943	24405	24780	25167	25665	25890	26319	26921	27317	27687	28116	28453	28892	29247	29754	30248	30485	31137	31460	31855	32357	32605	33219	33580	33936	34305	34749	35161	35545	36135	36594	36932	37206	37765	38247	38473	38904	39379	39808	40241	40571	41164	41492	41821	42449	42895	20.78414511680603	2.659853935241699
3	9.310206174850464	pulse	2	t		isi	8.0	./textures/oneOverF_texture_1_1024_8.bmp	477	683	1164	1685	1940	2368	2955	3389	3790	4089	4609	5018	5389	5858	6241	6725	7135	7587	7864	8392	8776	9188	9691	10132	10356	10781	11353	11634	12044	12610	12945	13330	13707	14197	14630	15169	15487	15949	16267	16733	17266	17568	17939	18333	18728	19332	19689	20200	20525	21039	21369	21812	22128	22711	23124	23508	23943	24405	24780	25167	25665	25890	26319	26921	27317	27687	28116	28453	28892	29247	29754	30248	30485	31137	31460	31855	32357	32605	33219	33580	33936	34305	34749	35161	35545	36135	36594	36932	37206	37765	38247	38473	38904	39379	39808	40241	40571	41164	41492	41821	42449	42895	21.720728158950806	
3	10.640206098556519	pulse	2	t		isi	8.0	./textures/oneOverF_texture_1_1024_8.bmp	477	683	1164	1685	1940	2368	2955	3389	3790	4089	4609	5018	5389	5858	6241	6725	7135	7587	7864	8392	8776	9188	9691	10132	10356	10781	11353	11634	12044	12610	12945	13330	13707	14197	14630	15169	15487	15949	16267	16733	17266	17568	17939	18333	18728	19332	19689	20200	20525	21039	21369	21812	22128	22711	23124	23508	23943	24405	24780	25167	25665	25890	26319	26921	27317	27687	28116	28453	28892	29247	29754	30248	30485	31137	31460	31855	32357	32605	33219	33580	33936	34305	34749	35161	35545	36135	36594	36932	37206	37765	38247	38473	38904	39379	39808	40241	40571	41164	41492	41821	42449	42895	23.05072808265686	
4	11.033477067947388	stim	0		0.0	dur	16.0	./textures/oneOverF_texture_1_1024_10.bmp	295	750	1160	1549	2051	2440	2927	3337	3720	4097	4520	5058	5284	5925	6150	6542	6981	7407	7919	8406	8760	9242	9669	10032	10537	10751	11259	11588	12061	12581	12921	13379	13853	14294	14539	14978	15510	15830	16328	16655	17088	17637	17966	18441	18737	19255	19619	20144	20428	20935	21428	21810	22192	22563	22979	23392	23883	24232	24610	25143	25634	26054	26332	26883	27251	27765	28042	28425	28919	29283	29855	30192	30589	31080	31396	31858	32369	32735	33177	33488	33869	34335	34906	35233	35698	35957	36369	36882	37261	37784	38175	38651	39079	39482	39885	40287	40709	41182	41617	41950	42302	42859	23.44399905204773	0.014203071594238281
4	11.047680139541626	stim	1		96.0	dur	16.0	./textures/oneOverF_texture_1_1024_10.bmp	295	750	1160	1549	2051	2440	2927	3337	3720	4097	4520	5058	5284	5925	6150	6542	6981	7407	7919	8406	8760	9242	9669	10032	10537	10751	11259	11588	12061	12581	12921	13379	13853	14294	14539	14978	15510	15830	16328	16655	17088	17637	17966	18441	18737	19255	19619	20144	20428	20935	21428	21810	22192	22563	22979	23392	23883	24232	24610	25143	25634	26054	26332	26883	27251	27765	28042	28425	28919	29283	29855	30192	30589	31080	31396	31858	32369	32735	33177	33488	33869	34335	34906	35233	35698	35957	36369	36882	37261	37784	38175	38651	39079	39482	39885	40287	40709	41182	41617	41950	42302	42859	23.458202123641968	0.026356935501098633
4	11.074037075042725	stim	2		384.0	dur	16.0	./textures/oneOverF_texture_1_1024_10.bmp	295	750	1160	1549	2051	2440	2927	3337	3720	4097	4520	5058	5284	5925	6150	6542	6981	7407	7919	8406	8760	9242	9669	10032	10537	10751	11259	11588	12061	12581	12921	13379	13853	14294	14539	14978	15510	15830	16328	16655	17088	17637	17966	18441	18737	19255	19619	20144	20428	20935	21428	21810	22192	22563	22979	23392	23883	24232	24610	25143	25634	26054	26332	26883	27251	27765	28042	28425	28919	29283	29855	30192	30589	31080	31396	31858	32369	32735	33177	33488	33869	34335	34906	35233	35698	35957	36369	36882	37261	37784	38175	38651	39079	39482	39885	40287	40709	41182	41617	41950	42302	42859	23.484559059143066	2.6752500534057617
4	11.970206022262573	pulse	2	t		dur	16.0	./textures/oneOverF_texture_1_1024_10.bmp	295	750	1160	1549	2051	2440	2927	3337	3720	4097	4520	5058	5284	5925	6150	6542	6981	7407	7919	8406	8760	9242	9669	10032	10537	10751	11259	11588	12061	12581	12921	13379	13853	14294	14539	14978	15510	15830	16328	16655	17088	17637	17966	18441	18737	19255	19619	20144	20428	20935	21428	21810	22192	22563	22979	23392	23883	24232	24610	25143	25634	26054	26332	26883	27251	27765	28042	28425	28919	29283	29855	30192	30589	31080	31396	31858	32369	32735	33177	33488	33869	34335	34906	35233	35698	35957	36369	36882	37261	37784	38175	38651	39079	39482	39885	40287	40709	41182	41617	41950	42302	42859	24.380728006362915	
4	13.300206184387207	pulse	2	t		dur	16.0	./textures/oneOverF_texture_1_1024_10.bmp	295	750	1160	1549	2051	2440	2927	3337	3720	4097	4520	5058	5284	5925	6150	6542	6981	7407	7919	8406	8760	9242	9669	10032	10537	10751	11259	11588	12061	12581	12921	13379	13853	14294	14539	14978	15510	15830	16328	16655	17088	17637	17966	18441	18737	19255	19619	20144	20428	20935	21428	21810	22192	22563	22979	23392	23883	24232	24610	25143	25634	26054	26332	26883	27251	27765	28042	28425	28919	29283	29855	30192	30589	31080	31396	31858	32369	32735	33177	33488	33869	34335	34906	35233	35698	35957	36369	36882	37261	37784	38175	38651	39079	39482	39885	40287	40709	41182	41617	41950	42302	42859	25.71072816848755	
5	13.749287128448486	stim	0		0.0	isi	32.0	./textures/oneOverF_texture_1_1024_9.bmp	436	737	1251	1659	1939	2371	2986	3256	3611	4211	4564	4940	5518	5730	6149	6598	7040	7470	8004	8367	8787	9252	9489	10130	10338	10788	11222	11677	12089	12432	12957	13345	13784	14115	14682	15056	15433	15946	16414	16845	17063	17683	17890	18321	18851	19369	19644	20032	20543	20975	21360	21707	22198	22644	23094	23507	23997	24181	24644	25045	25565	25963	26469	26745	27127	27698	27992	28507	28911	29399	29710	30190	30555	30979	31322	31975	32322	32609	33132	33588	33979	34401	34763	35231	35522	36163	36588	36884	37430	37819	38191	38506	39065	39449	39784	40196	40740	41007	41539	41971	42305	42735	26.159809112548828	0.013963937759399414
5	13.763251066207886	stim	1		96.0	isi	32.0	./textures/oneOverF_texture_1_1024_9.bmp	436	737	1251	1659	1939	2371	2986	3256	3611	4211	4564	4940	5518	5730	6149	6598	7040	7470	8004	8367	8787	9252	9489	10130	10338	10788	11222	11677	12089	12432	12957	13345	13784	14115	14682	15056	15433	15946	16414	16845	17063	17683	17890	18321	18851	19369	19644	20032	20543	20975	21360	21707	22198	22644	23094	23507	23997	24181	24644	25045	25565	25963	26469	26745	27127	27698	27992	28507	28911	29399	29710	30190	30555	30979	31322	31975	32322	32609	33132	33588	33979	34401	34763	35231	35522	36163	36588	36884	37430	37819	38191	38506	39065	39449	39784	40196	40740	41007	41539	41971	42305	42735	26.173773050308228	0.04447197914123535
5	13.807723045349121	stim	2		384.0	isi	32.0	./textures/oneOverF_texture_1_1024_9.bmp	436	737	1251	1659	1939	2371	2986	3256	3611	4211	4564	4940	5518	5730	6149	6598	7040	7470	8004	8367	8787	9252	9489	10130	10338	10788	11222	11677	12089	12432	12957	13345	13784	14115	14682	15056	15433	15946	16414	16845	17063	17683	17890	18321	18851	19369	19644	20032	20543	20975	21360	21707	22198	22644	23094	23507	23997	24181	24644	25045	25565	25963	26469	26745	27127	27698	27992	28507	28911	29399	29710	30190	30555	30979	31322	31975	32322	32609	33132	33588	33979	34401	34763	35231	35522	36163	36588	36884	37430	37819	38191	38506	39065	39449	39784	40196	40740	41007	41539	41971	42305	42735	26.218245029449463	2.6753220558166504
5	14.630205154418945	pulse	2	t		isi	32.0	./textures/oneOverF_texture_1_1024_9.bmp	436	737	1251	1659	1939	2371	2986	3256	3611	4211	4564	4940	5518	5730	6149	6598	7040	7470	8004	8367	8787	9252	9489	10130	10338	10788	11222	11677	12089	12432	12957	13345	13784	14115	14682	15056	15433	15946	16414	16845	17063	17683	17890	18321	18851	19369	19644	20032	20543	20975	21360	21707	22198	22644	23094	23507	23997	24181	24644	25045	25565	25963	26469	26745	27127	27698	27992	28507	28911	29399	29710	30190	30555	30979	31322	31975	32322	32609	33132	33588	33979	34401	34763	35231	35522	36163	36588	36884	37430	37819	38191	38506	39065	39449	39784	40196	40740	41007	41539	41971	42305	42735	27.040727138519287	
5	15.960205078125	pulse	2	t		isi	32.0	./textures/oneOverF_texture_1_1024_9.bmp	436	737	1251	1659	1939	2371	2986	3256	3611	4211	4564	4940	5518	5730	6149	6598	7040	7470	8004	8367	8787	9252	9489	10130	10338	10788	11222	11677	12089	12432	12957	13345	13784	14115	14682	15056	15433	15946	16414	16845	17063	17683	17890	18321	18851	19369	19644	20032	20543	20975	21360	21707	22198	22644	23094	23507	23997	24181	24644	25045	25565	25963	26469	26745	27127	27698	27992	28507	28911	29399	29710	30190	30555	30979	31322	31975	32322	32609	33132	33588	33979	34401	34763	35231	35522	36163	36588	36884	37430	37819	38191	38506	39065	39449	39784	40196	40740	41007	41539	41971	42305	42735	28.370727062225342	
6	16.48304510116577	stim	0		0.0	dur	64.0	./textures/oneOverF_texture_colored_1_1024_9.bmp	254	780	1305	1556	2079	2524	2970	3419	3638	4170	4524	5038	5429	5917	6243	6631	7090	7391	7835	8238	8741	9093	9579	9939	10323	10877	11310	11766	12104	12646	12927	13450	13725	14223	14627	15104	15471	15916	16245	16804	17268	17574	17918	18408	18900	19318	19646	20194	20516	20931	21420	21780	22235	22626	23126	23556	23822	24181	24825	25123	25646	26015	26506	26841	27296	27676	28009	28556	29032	29370	29746	30253	30705	30940	31429	31965	32176	32743	33083	33596	34079	34280	34866	35325	35552	36115	36451	36935	37367	37654	38105	38699	39091	39311	39831	40173	40614	41213	41535	41945	42455	42876	28.893567085266113	0.013927936553955078
6	16.496973037719727	stim	1		96.0	dur	64.0	./textures/oneOverF_texture_colored_1_1024_9.bmp	254	780	1305	1556	2079	2524	2970	3419	3638	4170	4524	5038	5429	5917	6243	6631	7090	7391	7835	8238	8741	9093	9579	9939	10323	10877	11310	11766	12104	12646	12927	13450	13725	14223	14627	15104	15471	15916	16245	16804	17268	17574	17918	18408	18900	19318	19646	20194	20516	20931	21420	21780	22235	22626	23126	23556	23822	24181	24825	25123	25646	26015	26506	26841	27296	27676	28009	28556	29032	29370	29746	30253	30705	30940	31429	31965	32176	32743	33083	33596	34079	34280	34866	35325	35552	36115	36451	36935	37367	37654	38105	38699	39091	39311	39831	40173	40614	41213	41535	41945	42455	42876	28.90749502182007	0.027811050415039062
6	16.524784088134766	stim	2		384.0	dur	64.0	./textures/oneOverF_texture_colored_1_1024_9.bmp	254	780	1305	1556	2079	2524	2970	3419	3638	4170	4524	5038	5429	5917	6243	6631	7090	7391	7835	8238	8741	9093	9579	9939	10323	10877	11310	11766	12104	12646	12927	13450	13725	14223	14627	15104	15471	15916	16245	16804	17268	17574	17918	18408	18900	19318	19646	20194	20516	20931	21420	21780	22235	22626	23126	23556	23822	24181	24825	25123	25646	26015	26506	26841	27296	27676	28009	28556	29032	29370	29746	30253	30705	30940	31429	31965	32176	32743	33083	33596	34079	34280	34866	35325	35552	36115	36451	36935	37367	37654	38105	38699	39091	39311	39831	40173	40614	41213	41535	41945	42455	42876	28.935306072235107	2.658569097518921
6	17.29020619392395	pulse	2	t		dur	64.0	./textures/oneOverF_texture_colored_1_1024_9.bmp	254	780	1305	1556	2079	2524	2970	3419	3638	4170	4524	5038	5429	5917	6243	6631	7090	7391	7835	8238	8741	9093	9579	9939	10323	10877	11310	11766	12104	12646	12927	13450	13725	14223	14627	15104	15471	15916	16245	16804	17268	17574	17918	18408	18900	19318	19646	20194	20516	20931	21420	21780	22235	22626	23126	23556	23822	24181	24825	25123	25646	26015	26506	26841	27296	27676	28009	28556	29032	29370	29746	30253	30705	30940	31429	31965	32176	32743	33083	33596	34079	34280	34866	35325	35552	36115	36451	36935	37367	37654	38105	38699	39091	39311	39831	40173	40614	41213	41535	41945	42455	42876	29.700728178024292	
6	18.62020516395569	pulse	2	t		dur	64.0	./textures/oneOverF_texture_colored_1_1024_9.bmp	254	780	1305	1556	2079	2524	2970	3419	3638	4170	4524	5038	5429	5917	6243	6631	7090	7391	7835	8238	8741	9093	9579	9939	10323	10877	11310	11766	12104	12646	12927	13450	13725	14223	14627	15104	15471	15916	16245	16804	17268	17574	17918	18408	18900	19318	19646	20194	20516	20931	21420	21780	22235	22626	23126	23556	23822	24181	24825	25123	25646	26015	26506	26841	27296	27676	28009	28556	29032	29370	29746	30253	30705	30940	31429	31965	32176	32743	33083	33596	34079	34280	34866	35325	35552	36115	36451	36935	37367	37654	38105	38699	39091	39311	39831	40173	40614	41213	41535	41945	42455	42876	31.03072714805603	
7	19.183353185653687	stim	0		0.0	isi	0.0	./textures/oneOverF_texture_1_1024_7.bmp	462	671	1108	1609	2130	2407	2915	3417	3681	4151	4512	4941	5341	5739	6275	6733	7190	7391	7862	8245	8774	9136	9588	9931	10415	10933	11371	11644	12091	12607	13059	13391	13875	14305	14663	15170	15470	15855	16310	16845	17268	17639	17971	18527	18811	19219	19638	20218	20622	21046	21440	21807	22173	22516	23099	23376	23952	24328	24806	25170	25636	26053	26433	26820	27328	27701	28183	28556	29018	29438	29801	30279	30511	30970	31411	31841	32356	32758	33085	33597	34030	34387	34852	35249	35678	36172	36505	36999	37364	37620	38161	38504	39106	39351	39912	40293	40628	41037	41594	41926	42291	42705	31.59387516975403	0.014392852783203125
7	19.19774603843689	stim	1		96.0	isi	0.0	./textures/oneOverF_texture_1_1024_7.bmp	462	671	1108	1609	2130	2407	2915	3417	3681	4151	4512	4941	5341	5739	6275	6733	7190	7391	7862	8245	8774	9136	9588	9931	10415	10933	11371	11644	12091	12607	13059	13391	13875	14305	14663	15170	15470	15855	16310	16845	17268	17639	17971	18527	18811	19219	19638	20218	20622	21046	21440	21807	22173	22516	23099	23376	23952	24328	24806	25170	25636	26053	26433	26820	27328	27701	28183	28556	29018	29438	29801	30279	30511	30970	31411	31841	32356	32758	33085	33597	34030	34387	34852	35249	35678	36172	36505	36999	37364	37620	38161	38504	39106	39351	39912	40293	40628	41037	41594	41926	42291	42705	31.60826802253723	0.027408123016357422
7	19.225154161453247	stim	2		384.0	isi	0.0	./textures/oneOverF_texture_1_1024_7.bmp	462	671	1108	1609	2130	2407	2915	3417	3681	4151	4512	4941	5341	5739	6275	6733	7190	7391	7862	8245	8774	9136	9588	9931	10415	10933	11371	11644	12091	12607	13059	13391	13875	14305	14663	15170	15470	15855	16310	16845	17268	17639	17971	18527	18811	19219	19638	20218	20622	21046	21440	21807	22173	22516	23099	23376	23952	24328	24806	25170	25636	26053	26433	26820	27328	27701	28183	28556	29018	29438	29801	30279	30511	30970	31411	31841	32356	32758	33085	33597	34030	34387	34852	35249	35678	36172	36505	36999	37364	37620	38161	38504	39106	39351	39912	40293	40628	41037	41594	41926	42291	42705	31.63567614555359	2.675330877304077
7	19.950206995010376	pulse	2	t		isi	0.0	./textures/oneOverF_texture_1_1024_7.bmp	462	671	1108	1609	2130	2407	2915	3417	3681	4151	4512	4941	5341	5739	6275	6733	7190	7391	7862	8245	8774	9136	9588	9931	10415	10933	11371	11644	12091	12607	13059	13391	13875	14305	14663	15170	15470	15855	16310	16845	17268	17639	17971	18527	18811	19219	19638	20218	20622	21046	21440	21807	22173	22516	23099	23376	23952	24328	24806	25170	25636	26053	26433	26820	27328	27701	28183	28556	29018	29438	29801	30279	30511	30970	31411	31841	32356	32758	33085	33597	34030	34387	34852	35249	35678	36172	36505	36999	37364	37620	38161	38504	39106	39351	39912	40293	40628	41037	41594	41926	42291	42705	32.36072897911072	
7	21.28020715713501	pulse	2	t		isi	0.0	./textures/oneOverF_texture_1_1024_7.bmp	462	671	1108	1609	2130	2407	2915	3417	3681	4151	4512	4941	5341	5739	6275	6733	7190	7391	7862	8245	8774	9136	9588	9931	10415	10933	11371	11644	12091	12607	13059	13391	13875	14305	14663	15170	15470	15855	16310	16845	17268	17639	17971	18527	18811	19219	19638	20218	20622	21046	21440	21807	22173	22516	23099	23376	23952	24328	24806	25170	25636	26053	26433	26820	27328	27701	28183	28556	29018	29438	29801	30279	30511	30970	31411	31841	32356	32758	33085	33597	34030	34387	34852	35249	35678	36172	36505	36999	37364	37620	38161	38504	39106	39351	39912	40293	40628	41037	41594	41926	42291	42705	33.69072914123535	
8	21.900485038757324	stim	0		0.0	dur	2.0	./textures/oneOverF_texture_colored_1_1024_0.bmp	424	792	1142	1674	2035	2530	2960	3314	3686	4063	4511	5057	5345	5782	6130	6652	7065	7470	7950	8327	8642	9144	9537	10009	10356	10830	11296	11723	12093	12493	12888	13387	13701	14148	14540	14976	15486	15895	16359	16776	17059	17678	17953	18378	18759	19254	19782	20008	20579	21021	21385	21746	22219	22569	23034	23397	23921	24254	24780	25092	25649	25963	26344	26728	27283	27749	28048	28574	29038	29343	29732	30128	30526	30911	31322	31740	32354	32750	33080	33507	33912	34393	34788	35194	35690	36154	36553	36995	37386	37711	38188	38692	39059	39426	39946	40350	40660	41162	41415	41909	42267	42803	34.311007022857666	0.014050960540771484
8	21.914535999298096	stim	1		96.0	dur	2.0	./textures/oneOverF_texture_colored_1_1024_0.bmp	424	792	1142	1674	2035	2530	2960	3314	3686	4063	4511	5057	5345	5782	6130	6652	7065	7470	7950	8327	8642	9144	9537	10009	10356	10830	11296	11723	12093	12493	12888	13387	13701	14148	14540	14976	15486	15895	16359	16776	17059	17678	17953	18378	18759	19254	19782	20008	20579	21021	21385	21746	22219	22569	23034	23397	23921	24254	24780	25092	25649	25963	26344	26728	27283	27749	28048	28574	29038	29343	29732	30128	30526	30911	31322	31740	32354	32750	33080	33507	33912	34393	34788	35194	35690	36154	36553	36995	37386	37711	38188	38692	39059	39426	39946	40350	40660	41162	41415	41909	42267	42803	34.32505798339844	0.02769017219543457
8	21.94222617149353	stim	2		384.0	dur	2.0	./textures/oneOverF_texture_colored_1_1024_0.bmp	424	792	1142	1674	2035	2530	2960	3314	3686	4063	4511	5057	5345	5782	6130	6652	7065	7470	7950	8327	8642	9144	9537	10009	10356	10830	11296	11723	12093	12493	12888	13387	13701	14148	14540	14976	15486	15895	16359	16776	17059	17678	17953	18378	18759	19254	19782	20008	20579	21021	21385	21746	22219	22569	23034	23397	23921	24254	24780	25092	25649	25963	26344	26728	27283	27749	28048	28574	29038	29343	29732	30128	30526	30911	31322	31740	32354	32750	33080	33507	33912	34393	34788	35194	35690	36154	36553	36995	37386	37711	38188	38692	39059	39426	39946	40350	40660	41162	41415	41909	42267	42803	34.35274815559387	2.6668789386749268
8	22.610206127166748	pulse	2	t		dur	2.0	./textures/oneOverF_texture_colored_1_1024_0.bmp	424	792	1142	1674	2035	2530	2960	3314	3686	4063	4511	5057	5345	5782	6130	6652	7065	7470	7950	8327	8642	9144	9537	10009	10356	10830	11296	11723	12093	12493	12888	13387	13701	14148	14540	14976	15486	15895	16359	16776	17059	17678	17953	18378	18759	19254	19782	20008	20579	21021	21385	21746	22219	22569	23034	23397	23921	24254	24780	25092	25649	25963	26344	26728	27283	27749	28048	28574	29038	29343	29732	30128	30526	30911	31322	31740	32354	32750	33080	33507	33912	34393	34788	35194	35690	36154	36553	36995	37386	37711	38188	38692	39059	39426	39946	40350	40660	41162	41415	41909	42267	42803	35.02072811126709	
8	23.940206050872803	pulse	2	t		dur	2.0	./textures/oneOverF_texture_colored_1_1024_0.bmp	424	792	1142	1674	2035	2530	2960	3314	3686	4063	4511	5057	5345	5782	6130	6652	7065	7470	7950	8327	8642	9144	9537	10009	10356	10830	11296	11723	12093	12493	12888	13387	13701	14148	14540	14976	15486	15895	16359	16776	17059	17678	17953	18378	18759	19254	19782	20008	20579	21021	21385	21746	22219	22569	23034	23397	23921	24254	24780	25092	25649	25963	26344	26728	27283	27749	28048	28574	29038	29343	29732	30128	30526	30911	31322	31740	32354	32750	33080	33507	33912	34393	34788	35194	35690	36154	36553	36995	37386	37711	38188	38692	39059	39426	39946	40350	40660	41162	41415	41909	42267	42803	36.350728034973145	
9	24.609105110168457	stim	0		0.0	isi	4.0	./textures/oneOverF_texture_1_1024_0.bmp	450	785	1300	1596	2107	2408	2868	3347	3710	4197	4637	4906	5444	5715	6243	6619	7073	7427	7937	8353	8815	9120	9541	9931	10422	10811	11213	11793	12093	12519	12968	13322	13800	14198	14755	15126	15517	15883	16423	16678	17154	17679	18083	18443	18746	19211	19685	20137	20414	20950	21425	21782	22252	22736	23026	23553	23867	24404	24693	25067	25505	26035	26426	26751	27333	27619	27968	28478	28854	29220	29701	30261	30572	31058	31514	31920	32262	32721	33026	33464	33957	34291	34776	35155	35720	36041	36501	36823	37297	37717	38267	38466	38976	39413	39778	40179	40676	41060	41420	42036	42330	42856	37.0196270942688	0.014172077178955078
9	24.623277187347412	stim	1		96.0	isi	4.0	./textures/oneOverF_texture_1_1024_0.bmp	450	785	1300	1596	2107	2408	2868	3347	3710	4197	4637	4906	5444	5715	6243	6619	7073	7427	7937	8353	8815	9120	9541	9931	10422	10811	11213	11793	12093	12519	12968	13322	13800	14198	14755	15126	15517	15883	16423	16678	17154	17679	18083	18443	18746	19211	19685	20137	20414	20950	21425	21782	22252	22736	23026	23553	23867	24404	24693	25067	25505	26035	26426	26751	27333	27619	27968	28478	28854	29220	29701	30261	30572	31058	31514	31920	32262	32721	33026	33464	33957	34291	34776	35155	35720	36041	36501	36823	37297	37717	38267	38466	38976	39413	39778	40179	40676	41060	41420	42036	42330	42856	37.033799171447754	0.044425010681152344
9	24.667702198028564	stim	2		384.0	isi	4.0	./textures/oneOverF_texture_1_1024_0.bmp	450	785	1300	1596	2107	2408	2868	3347	3710	4197	4637	4906	5444	5715	6243	6619	7073	7427	7937	8353	8815	9120	9541	9931	10422	10811	11213	11793	12093	12519	12968	13322	13800	14198	14755	15126	15517	15883	16423	16678	17154	17679	18083	18443	18746	19211	19685	20137	20414	20950	21425	21782	22252	22736	23026	23553	23867	24404	24693	25067	25505	26035	26426	26751	27333	27619	27968	28478	28854	29220	29701	30261	30572	31058	31514	31920	32262	32721	33026	33464	33957	34291	34776	35155	35720	36041	36501	36823	37297	37717	38267	38466	38976	39413	39778	40179	40676	41060	41420	42036	42330	42856	37.078224182128906	2.6678199768066406
9	25.27020502090454	pulse	2	t		isi	4.0	./textures/oneOverF_texture_1_1024_0.bmp	450	785	1300	1596	2107	2408	2868	3347	3710	4197	4637	4906	5444	5715	6243	6619	7073	7427	7937	8353	8815	9120	9541	9931	10422	10811	11213	11793	12093	12519	12968	13322	13800	14198	14755	15126	15517	15883	16423	16678	17154	17679	18083	18443	18746	19211	19685	20137	20414	20950	21425	21782	22252	22736	23026	23553	23867	24404	24693	25067	25505	26035	26426	26751	27333	27619	27968	28478	28854	29220	29701	30261	30572	31058	31514	31920	32262	32721	33026	33464	33957	34291	34776	35155	35720	36041	36501	36823	37297	37717	38267	38466	38976	39413	39778	40179	40676	41060	41420	42036	42330	42856	37.68072700500488	
9	26.60020613670349	pulse	2	t		isi	4.0	./textures/oneOverF_texture_1_1024_0.bmp	450	785	1300	1596	2107	2408	2868	3347	3710	4197	4637	4906	5444	5715	6243	6619	7073	7427	7937	8353	8815	9120	9541	9931	10422	10811	11213	11793	12093	12519	12968	13322	13800	14198	14755	15126	15517	15883	16423	16678	17154	17679	18083	18443	18746	19211	19685	20137	20414	20950	21425	21782	22252	22736	23026	23553	23867	24404	24693	25067	25505	26035	26426	26751	27333	27619	27968	28478	28854	29220	29701	30261	30572	31058	31514	31920	32262	32721	33026	33464	33957	34291	34776	35155	35720	36041	36501	36823	37297	37717	38267	38466	38976	39413	39778	40179	40676	41060	41420	42036	42330	42856	39.01072812080383	
10	27.335522174835205	stim	0		0.0	dur	8.0	./textures/oneOverF_texture_1_1024_1.bmp	389	848	1313	1562	1989	2434	2820	3344	3681	4197	4465	4964	5478	5876	6237	6602	7144	7472	7852	8345	8655	9115	9608	9967	10411	10820	11248	11816	12079	12631	12884	13366	13695	14318	14715	15016	15363	15949	16436	16723	17224	17687	18097	18476	18743	19205	19686	20104	20589	21009	21443	21817	22239	22675	23069	23453	23915	24348	24685	25077	25475	25938	26295	26933	27314	27724	28116	28397	28942	29440	29839	30233	30524	31014	31466	31946	32187	32748	33054	33469	33877	34488	34790	35126	35680	36149	36381	36947	37220	37782	38218	38679	38997	39449	39772	40285	40727	41097	41639	42036	42243	42805	39.74604415893555	0.01458883285522461
10	27.35011100769043	stim	1		96.0	dur	8.0	./textures/oneOverF_texture_1_1024_1.bmp	389	848	1313	1562	1989	2434	2820	3344	3681	4197	4465	4964	5478	5876	6237	6602	7144	7472	7852	8345	8655	9115	9608	9967	10411	10820	11248	11816	12079	12631	12884	13366	13695	14318	14715	15016	15363	15949	16436	16723	17224	17687	18097	18476	18743	19205	19686	20104	20589	21009	21443	21817	22239	22675	23069	23453	23915	24348	24685	25077	25475	25938	26295	26933	27314	27724	28116	28397	28942	29440	29839	30233	30524	31014	31466	31946	32187	32748	33054	33469	33877	34488	34790	35126	35680	36149	36381	36947	37220	37782	38218	38679	38997	39449	39772	40285	40727	41097	41639	42036	42243	42805	39.76063299179077	0.026491165161132812
10	27.376602172851562	stim	2		384.0	dur	8.0	./textures/oneOverF_texture_1_1024_1.bmp	389	848	1313	1562	1989	2434	2820	3344	3681	4197	4465	4964	5478	5876	6237	6602	7144	7472	7852	8345	8655	9115	9608	9967	10411	10820	11248	11816	12079	12631	12884	13366	13695	14318	14715	15016	15363	15949	16436	16723	17224	17687	18097	18476	18743	19205	19686	20104	20589	21009	21443	21817	22239	22675	23069	23453	23915	24348	24685	25077	25475	25938	26295	26933	27314	27724	28116	28397	28942	29440	29839	30233	30524	31014	31466	31946	32187	32748	33054	33469	33877	34488	34790	35126	35680	36149	36381	36947	37220	37782	38218	38679	38997	39449	39772	40285	40727	41097	41639	42036	42243	42805	39.787124156951904	2.6750478744506836
10	27.930206060409546	pulse	2	t		dur	8.0	./textures/oneOverF_texture_1_1024_1.bmp	389	848	1313	1562	1989	2434	2820	3344	3681	4197	4465	4964	5478	5876	6237	6602	7144	7472	7852	8345	8655	9115	9608	9967	10411	10820	11248	11816	12079	12631	12884	13366	13695	14318	14715	15016	15363	15949	16436	16723	17224	17687	18097	18476	18743	19205	19686	20104	20589	21009	21443	21817	22239	22675	23069	23453	23915	24348	24685	25077	25475	25938	26295	26933	27314	27724	28116	28397	28942	29440	29839	30233	30524	31014	31466	31946	32187	32748	33054	33469	33877	34488	34790	35126	35680	36149	36381	36947	37220	37782	38218	38679	38997	39449	39772	40285	40727	41097	41639	42036	42243	42805	40.34072804450989	
10	29.2602059841156	pulse	2	t		dur	8.0	./textures/oneOverF_texture_1_1024_1.bmp	389	848	1313	1562	1989	2434	2820	3344	3681	4197	4465	4964	5478	5876	6237	6602	7144	7472	7852	8345	8655	9115	9608	9967	10411	10820	11248	11816	12079	12631	12884	13366	13695	14318	14715	15016	15363	15949	16436	16723	17224	17687	18097	18476	18743	19205	19686	20104	20589	21009	21443	21817	22239	22675	23069	23453	23915	24348	24685	25077	25475	25938	26295	26933	27314	27724	28116	28397	28942	29440	29839	30233	30524	31014	31466	31946	32187	32748	33054	33469	33877	34488	34790	35126	35680	36149	36381	36947	37220	37782	38218	38679	38997	39449	39772	40285	40727	41097	41639	42036	42243	42805	41.67072796821594	
11	30.051650047302246	stim	0		0.0	isi	16.0	./textures/oneOverF_texture_1_1024_6.bmp	339	685	1180	1600	1998	2483	2902	3371	3795	4068	4628	5098	5489	5790	6211	6764	7095	7388	8012	8370	8718	9122	9569	9924	10466	10833	11224	11645	12207	12570	13043	13262	13860	14189	14575	15037	15510	15956	16372	16795	17118	17605	18003	18342	18872	19225	19633	20069	20509	20889	21336	21696	22112	22617	23056	23496	23812	24311	24732	25087	25559	26004	26373	26734	27229	27720	27982	28471	28873	29445	29796	30253	30700	30972	31363	31844	32356	32817	33074	33556	33852	34398	34818	35241	35661	36146	36525	36992	37364	37647	38273	38609	39030	39310	39949	40269	40585	41216	41402	41986	42342	42696	42.46217203140259	0.014430046081542969
11	30.06608009338379	stim	1		96.0	isi	16.0	./textures/oneOverF_texture_1_1024_6.bmp	339	685	1180	1600	1998	2483	2902	3371	3795	4068	4628	5098	5489	5790	6211	6764	7095	7388	8012	8370	8718	9122	9569	9924	10466	10833	11224	11645	12207	12570	13043	13262	13860	14189	14575	15037	15510	15956	16372	16795	17118	17605	18003	18342	18872	19225	19633	20069	20509	20889	21336	21696	22112	22617	23056	23496	23812	24311	24732	25087	25559	26004	26373	26734	27229	27720	27982	28471	28873	29445	29796	30253	30700	30972	31363	31844	32356	32817	33074	33556	33852	34398	34818	35241	35661	36146	36525	36992	37364	37647	38273	38609	39030	39310	39949	40269	40585	41216	41402	41986	42342	42696	42.47660207748413	0.04400897026062012
11	30.11008906364441	stim	2		384.0	isi	16.0	./textures/oneOverF_texture_1_1024_6.bmp	339	685	1180	1600	1998	2483	2902	3371	3795	4068	4628	5098	5489	5790	6211	6764	7095	7388	8012	8370	8718	9122	9569	9924	10466	10833	11224	11645	12207	12570	13043	13262	13860	14189	14575	15037	15510	15956	16372	16795	17118	17605	18003	18342	18872	19225	19633	20069	20509	20889	21336	21696	22112	22617	23056	23496	23812	24311	24732	25087	25559	26004	26373	26734	27229	27720	27982	28471	28873	29445	29796	30253	30700	30972	31363	31844	32356	32817	33074	33556	33852	34398	34818	35241	35661	36146	36525	36992	37364	37647	38273	38609	39030	39310	39949	40269	40585	41216	41402	41986	42342	42696	42.52061104774475	2.6752989292144775
11	30.590205192565918	pulse	2	t		isi	16.0	./textures/oneOverF_texture_1_1024_6.bmp	339	685	1180	1600	1998	2483	2902	3371	3795	4068	4628	5098	5489	5790	6211	6764	7095	7388	8012	8370	8718	9122	9569	9924	10466	10833	11224	11645	12207	12570	13043	13262	13860	14189	14575	15037	15510	15956	16372	16795	17118	17605	18003	18342	18872	19225	19633	20069	20509	20889	21336	21696	22112	22617	23056	23496	23812	24311	24732	25087	25559	26004	26373	26734	27229	27720	27982	28471	28873	29445	29796	30253	30700	30972	31363	31844	32356	32817	33074	33556	33852	34398	34818	35241	35661	36146	36525	36992	37364	37647	38273	38609	39030	39310	39949	40269	40585	41216	41402	41986	42342	42696	43.00072717666626	
11	31.920209169387817	pulse	2	t		isi	16.0	./textures/oneOverF_texture_1_1024_6.bmp	339	685	1180	1600	1998	2483	2902	3371	3795	4068	4628	5098	5489	5790	6211	6764	7095	7388	8012	8370	8718	9122	9569	9924	10466	10833	11224	11645	12207	12570	13043	13262	13860	14189	14575	15037	15510	15956	16372	16795	17118	17605	18003	18342	18872	19225	19633	20069	20509	20889	21336	21696	22112	22617	23056	23496	23812	24311	24732	25087	25559	26004	26373	26734	27229	27720	27982	28471	28873	29445	29796	30253	30700	30972	31363	31844	32356	32817	33074	33556	33852	34398	34818	35241	35661	36146	36525	36992	37364	37647	38273	38609	39030	39310	39949	40269	40585	41216	41402	41986	42342	42696	44.33073115348816	
12	32.78538799285889	stim	0		0.0	dur	32.0	./textures/oneOverF_texture_colored_1_1024_6.bmp	383	722	1099	1669	2108	2474	2859	3255	3711	4186	4639	5019	5503	5832	6187	6630	7120	7402	7816	8410	8837	9237	9615	10018	10513	10856	11221	11767	12064	12657	12975	13304	13720	14329	14570	15004	15559	15939	16361	16745	17083	17514	18018	18485	18791	19358	19564	20127	20417	20993	21279	21696	22249	22719	23000	23503	23927	24248	24814	25037	25641	26020	26447	26718	27226	27714	28110	28552	28935	29283	29655	30228	30596	30940	31467	31918	32205	32734	33144	33637	34036	34336	34691	35179	35603	36166	36494	36901	37263	37761	38198	38463	39027	39530	39742	40176	40632	41061	41435	41867	42284	42689	45.19590997695923	0.014322996139526367
12	32.79971098899841	stim	1		96.0	dur	32.0	./textures/oneOverF_texture_colored_1_1024_6.bmp	383	722	1099	1669	2108	2474	2859	3255	3711	4186	4639	5019	5503	5832	6187	6630	7120	7402	7816	8410	8837	9237	9615	10018	10513	10856	11221	11767	12064	12657	12975	13304	13720	14329	14570	15004	15559	15939	16361	16745	17083	17514	18018	18485	18791	19358	19564	20127	20417	20993	21279	21696	22249	22719	23000	23503	23927	24248	24814	25037	25641	26020	26447	26718	27226	27714	28110	28552	28935	29283	29655	30228	30596	30940	31467	31918	32205	32734	33144	33637	34036	34336	34691	35179	35603	36166	36494	36901	37263	37761	38198	38463	39027	39530	39742	40176	40632	41061	41435	41867	42284	42689	45.210232973098755	0.02744913101196289
12	32.827160120010376	stim	2		384.0	dur	32.0	./textures/oneOverF_texture_colored_1_1024_6.bmp	383	722	1099	1669	2108	2474	2859	3255	3711	4186	4639	5019	5503	5832	6187	6630	7120	7402	7816	8410	8837	9237	9615	10018	10513	10856	11221	11767	12064	12657	12975	13304	13720	14329	14570	15004	15559	15939	16361	16745	17083	17514	18018	18485	18791	19358	19564	20127	20417	20993	21279	21696	22249	22719	23000	23503	23927	24248	24814	25037	25641	26020	26447	26718	27226	27714	28110	28552	28935	29283	29655	30228	30596	30940	31467	31918	32205	32734	33144	33637	34036	34336	34691	35179	35603	36166	36494	36901	37263	37761	38198	38463	39027	39530	39742	40176	40632	41061	41435	41867	42284	42689	45.23768210411072	2.658505916595459
12	33.250216007232666	pulse	2	t		dur	32.0	./textures/oneOverF_texture_colored_1_1024_6.bmp	383	722	1099	1669	2108	2474	2859	3255	3711	4186	4639	5019	5503	5832	6187	6630	7120	7402	7816	8410	8837	9237	9615	10018	10513	10856	11221	11767	12064	12657	12975	13304	13720	14329	14570	15004	15559	15939	16361	16745	17083	17514	18018	18485	18791	19358	19564	20127	20417	20993	21279	21696	22249	22719	23000	23503	23927	24248	24814	25037	25641	26020	26447	26718	27226	27714	28110	28552	28935	29283	29655	30228	30596	30940	31467	31918	32205	32734	33144	33637	34036	34336	34691	35179	35603	36166	36494	36901	37263	37761	38198	38463	39027	39530	39742	40176	40632	41061	41435	41867	42284	42689	45.66073799133301	
12	34.58020615577698	pulse	2	t		dur	32.0	./textures/oneOverF_texture_colored_1_1024_6.bmp	383	722	1099	1669	2108	2474	2859	3255	3711	4186	4639	5019	5503	5832	6187	6630	7120	7402	7816	8410	8837	9237	9615	10018	10513	10856	11221	11767	12064	12657	12975	13304	13720	14329	14570	15004	15559	15939	16361	16745	17083	17514	18018	18485	18791	19358	19564	20127	20417	20993	21279	21696	22249	22719	23000	23503	23927	24248	24814	25037	25641	26020	26447	26718	27226	27714	28110	28552	28935	29283	29655	30228	30596	30940	31467	31918	32205	32734	33144	33637	34036	34336	34691	35179	35603	36166	36494	36901	37263	37761	38198	38463	39027	39530	39742	40176	40632	41061	41435	41867	42284	42689	46.99072813987732	
13	35.485666036605835	stim	0		0.0	isi	64.0	./textures/oneOverF_texture_1_1024_8.bmp	250	812	1229	1707	2157	2411	2867	3250	3707	4246	4536	4884	5320	5854	6234	6576	7176	7501	7802	8286	8773	9209	9546	9988	10492	10802	11339	11655	12129	12426	12971	13281	13914	14141	14614	15116	15598	15900	16225	16754	17119	17647	18054	18434	18761	19161	19673	20165	20635	20945	21477	21791	22291	22732	22948	23564	23782	24260	24722	25039	25442	26059	26437	26794	27312	27650	28098	28581	29021	29375	29720	30162	30693	31045	31516	31866	32337	32807	33231	33470	33903	34315	34680	35227	35693	35953	36480	36999	37210	37805	38187	38618	38983	39501	39751	40290	40673	41085	41506	41977	42294	42685	47.89618802070618	0.01456904411315918
13	35.500235080718994	stim	1		96.0	isi	64.0	./textures/oneOverF_texture_1_1024_8.bmp	250	812	1229	1707	2157	2411	2867	3250	3707	4246	4536	4884	5320	5854	6234	6576	7176	7501	7802	8286	8773	9209	9546	9988	10492	10802	11339	11655	12129	12426	12971	13281	13914	14141	14614	15116	15598	15900	16225	16754	17119	17647	18054	18434	18761	19161	19673	20165	20635	20945	21477	21791	22291	22732	22948	23564	23782	24260	24722	25039	25442	26059	26437	26794	27312	27650	28098	28581	29021	29375	29720	30162	30693	31045	31516	31866	32337	32807	33231	33470	33903	34315	34680	35227	35693	35953	36480	36999	37210	37805	38187	38618	38983	39501	39751	40290	40673	41085	41506	41977	42294	42685	47.910757064819336	0.035620927810668945
13	35.53585600852966	stim	2		480.0	isi	64.0	./textures/oneOverF_texture_1_1024_8.bmp	250	812	1229	1707	2157	2411	2867	3250	3707	4246	4536	4884	5320	5854	6234	6576	7176	7501	7802	8286	8773	9209	9546	9988	10492	10802	11339	11655	12129	12426	12971	13281	13914	14141	14614	15116	15598	15900	16225	16754	17119	17647	18054	18434	18761	19161	19673	20165	20635	20945	21477	21791	22291	22732	22948	23564	23782	24260	24722	25039	25442	26059	26437	26794	27312	27650	28098	28581	29021	29375	29720	30162	30693	31045	31516	31866	32337	32807	33231	33470	33903	34315	34680	35227	35693	35953	36480	36999	37210	37805	38187	38618	38983	39501	39751	40290	40673	41085	41506	41977	42294	42685	47.946377992630005	2.666884183883667
13	35.91020607948303	pulse	2	t		isi	64.0	./textures/oneOverF_texture_1_1024_8.bmp	250	812	1229	1707	2157	2411	2867	3250	3707	4246	4536	4884	5320	5854	6234	6576	7176	7501	7802	8286	8773	9209	9546	9988	10492	10802	11339	11655	12129	12426	12971	13281	13914	14141	14614	15116	15598	15900	16225	16754	17119	17647	18054	18434	18761	19161	19673	20165	20635	20945	21477	21791	22291	22732	22948	23564	23782	24260	24722	25039	25442	26059	26437	26794	27312	27650	28098	28581	29021	29375	29720	30162	30693	31045	31516	31866	32337	32807	33231	33470	33903	34315	34680	35227	35693	35953	36480	36999	37210	37805	38187	38618	38983	39501	39751	40290	40673	41085	41506	41977	42294	42685	48.320728063583374	
13	37.240204095840454	pulse	2	t		isi	64.0	./textures/oneOverF_texture_1_1024_8.bmp	250	812	1229	1707	2157	2411	2867	3250	3707	4246	4536	4884	5320	5854	6234	6576	7176	7501	7802	8286	8773	9209	9546	9988	10492	10802	11339	11655	12129	12426	12971	13281	13914	14141	14614	15116	15598	15900	16225	16754	17119	17647	18054	18434	18761	19161	19673	20165	20635	20945	21477	21791	22291	22732	22948	23564	23782	24260	24722	25039	25442	26059	26437	26794	27312	27650	28098	28581	29021	29375	29720	30162	30693	31045	31516	31866	32337	32807	33231	33470	33903	34315	34680	35227	35693	35953	36480	36999	37210	37805	38187	38618	38983	39501	39751	40290	40673	41085	41506	41977	42294	42685	49.650726079940796	
14	38.20274019241333	stim	0		0.0	dur	0.0	./textures/oneOverF_texture_1_1024_10.bmp	335	792	1216	1599	1935	2466	2831	3237	3631	4136	4648	4865	5441	5838	6162	6616	7034	7484	7986	8372	8733	9195	9710	10024	10529	10971	11356	11685	12181	12474	12847	13431	13897	14237	14652	15107	15494	15975	16219	16759	17207	17565	17931	18521	18769	19225	19566	20115	20448	21052	21361	21810	22316	22622	23089	23510	23764	24303	24828	25023	25553	25913	26397	26797	27155	27567	28055	28530	28838	29297	29726	30063	30498	31110	31437	31939	32245	32757	33228	33464	34028	34324	34724	35192	35551	36179	36430	36812	37243	37846	38052	38521	38944	39485	39751	40231	40741	41103	41588	42041	42413	42753	50.61326217651367	0.014362812042236328
14	38.217103004455566	stim	1		0.0	dur	0.0	./textures/oneOverF_texture_1_1024_10.bmp	335	792	1216	1599	1935	2466	2831	3237	3631	4136	4648	4865	5441	5838	6162	6616	7034	7484	7986	8372	8733	9195	9710	10024	10529	10971	11356	11685	12181	12474	12847	13431	13897	14237	14652	15107	15494	15975	16219	16759	17207	17565	17931	18521	18769	19225	19566	20115	20448	21052	21361	21810	22316	22622	23089	23510	23764	24303	24828	25023	25553	25913	26397	26797	27155	27567	28055	28530	28838	29297	29726	30063	30498	31110	31437	31939	32245	32757	33228	33464	34028	34324	34724	35192	35551	36179	36430	36812	37243	37846	38052	38521	38944	39485	39751	40231	40741	41103	41588	42041	42413	42753	50.62762498855591	0.014249086380004883
14	38.23135209083557	stim	2		384.0	dur	0.0	./textures/oneOverF_texture_1_1024_10.bmp	335	792	1216	1599	1935	2466	2831	3237	3631	4136	4648	4865	5441	5838	6162	6616	7034	7484	7986	8372	8733	9195	9710	10024	10529	10971	11356	11685	12181	12474	12847	13431	13897	14237	14652	15107	15494	15975	16219	16759	17207	17565	17931	18521	18769	19225	19566	20115	20448	21052	21361	21810	22316	22622	23089	23510	23764	24303	24828	25023	25553	25913	26397	26797	27155	27567	28055	28530	28838	29297	29726	30063	30498	31110	31437	31939	32245	32757	33228	33464	34028	34324	34724	35192	35551	36179	36430	36812	37243	37846	38052	38521	38944	39485	39751	40231	40741	41103	41588	42041	42413	42753	50.64187407493591	2.6803550720214844
14	38.570204973220825	pulse	2	t		dur	0.0	./textures/oneOverF_texture_1_1024_10.bmp	335	792	1216	1599	1935	2466	2831	3237	3631	4136	4648	4865	5441	5838	6162	6616	7034	7484	7986	8372	8733	9195	9710	10024	10529	10971	11356	11685	12181	12474	12847	13431	13897	14237	14652	15107	15494	15975	16219	16759	17207	17565	17931	18521	18769	19225	19566	20115	20448	21052	21361	21810	22316	22622	23089	23510	23764	24303	24828	25023	25553	25913	26397	26797	27155	27567	28055	28530	28838	29297	29726	30063	30498	31110	31437	31939	32245	32757	33228	33464	34028	34324	34724	35192	35551	36179	36430	36812	37243	37846	38052	38521	38944	39485	39751	40231	40741	41103	41588	42041	42413	42753	50.98072695732117	
14	39.90020513534546	pulse	2	t		dur	0.0	./textures/oneOverF_texture_1_1024_10.bmp	335	792	1216	1599	1935	2466	2831	3237	3631	4136	4648	4865	5441	5838	6162	6616	7034	7484	7986	8372	8733	9195	9710	10024	10529	10971	11356	11685	12181	12474	12847	13431	13897	14237	14652	15107	15494	15975	16219	16759	17207	17565	17931	18521	18769	19225	19566	20115	20448	21052	21361	21810	22316	22622	23089	23510	23764	24303	24828	25023	25553	25913	26397	26797	27155	27567	28055	28530	28838	29297	29726	30063	30498	31110	31437	31939	32245	32757	33228	33464	34028	34324	34724	35192	35551	36179	36430	36812	37243	37846	38052	38521	38944	39485	39751	40231	40741	41103	41588	42041	42413	42753	52.3107271194458	
15	40.911707162857056	stim	0		0.0	isi	2.0	./textures/oneOverF_texture_1_1024_9.bmp	475	700	1153	1608	2001	2478	2872	3197	3731	4040	4589	4921	5296	5832	6237	6614	7119	7382	7801	8383	8761	9291	9556	10062	10497	10879	11371	11654	12223	12441	12961	13455	13782	14159	14676	15001	15394	16017	16411	16839	17065	17463	17964	18390	18738	19236	19579	20060	20544	20959	21419	21862	22278	22548	23091	23554	23874	24288	24803	25080	25646	25884	26325	26779	27337	27640	28088	28486	29006	29269	29842	30192	30621	31043	31382	31760	32352	32589	33082	33420	33948	34284	34746	35160	35589	36029	36420	36900	37432	37652	38134	38586	38934	39490	39906	40185	40746	41013	41430	41940	42479	42842	53.3222291469574	0.014307022094726562
15	40.92601418495178	stim	1		96.0	isi	2.0	./textures/oneOverF_texture_1_1024_9.bmp	475	700	1153	1608	2001	2478	2872	3197	3731	4040	4589	4921	5296	5832	6237	6614	7119	7382	7801	8383	8761	9291	9556	10062	10497	10879	11371	11654	12223	12441	12961	13455	13782	14159	14676	15001	15394	16017	16411	16839	17065	17463	17964	18390	18738	19236	19579	20060	20544	20959	21419	21862	22278	22548	23091	23554	23874	24288	24803	25080	25646	25884	26325	26779	27337	27640	28088	28486	29006	29269	29842	30192	30621	31043	31382	31760	32352	32589	33082	33420	33948	34284	34746	35160	35589	36029	36420	36900	37432	37652	38134	38586	38934	39490	39906	40185	40746	41013	41430	41940	42479	42842	53.336536169052124	0.0440068244934082
15	40.97002100944519	stim	2		384.0	isi	2.0	./textures/oneOverF_texture_1_1024_9.bmp	475	700	1153	1608	2001	2478	2872	3197	3731	4040	4589	4921	5296	5832	6237	6614	7119	7382	7801	8383	8761	9291	9556	10062	10497	10879	11371	11654	12223	12441	12961	13455	13782	14159	14676	15001	15394	16017	16411	16839	17065	17463	17964	18390	18738	19236	19579	20060	20544	20959	21419	21862	22278	22548	23091	23554	23874	24288	24803	25080	25646	25884	26325	26779	27337	27640	28088	28486	29006	29269	29842	30192	30621	31043	31382	31760	32352	32589	33082	33420	33948	34284	34746	35160	35589	36029	36420	36900	37432	37652	38134	38586	38934	39490	39906	40185	40746	41013	41430	41940	42479	42842	53.38054299354553	2.675899028778076
15	41.230205059051514	pulse	2	t		isi	2.0	./textures/oneOverF_texture_1_1024_9.bmp	475	700	1153	1608	2001	2478	2872	3197	3731	4040	4589	4921	5296	5832	6237	6614	7119	7382	7801	8383	8761	9291	9556	10062	10497	10879	11371	11654	12223	12441	12961	13455	13782	14159	14676	15001	15394	16017	16411	16839	17065	17463	17964	18390	18738	19236	19579	20060	20544	20959	21419	21862	22278	22548	23091	23554	23874	24288	24803	25080	25646	25884	26325	26779	27337	27640	28088	28486	29006	29269	29842	30192	30621	31043	31382	31760	32352	32589	33082	33420	33948	34284	34746	35160	35589	36029	36420	36900	37432	37652	38134	38586	38934	39490	39906	40185	40746	41013	41430	41940	42479	42842	53.640727043151855	
15	42.560206174850464	pulse	2	t		isi	2.0	./textures/oneOverF_texture_1_1024_9.bmp	475	700	1153	1608	2001	2478	2872	3197	3731	4040	4589	4921	5296	5832	6237	6614	7119	7382	7801	8383	8761	9291	9556	10062	10497	10879	11371	11654	12223	12441	12961	13455	13782	14159	14676	15001	15394	16017	16411	16839	17065	17463	17964	18390	18738	19236	19579	20060	20544	20959	21419	21862	22278	22548	23091	23554	23874	24288	24803	25080	25646	25884	26325	26779	27337	27640	28088	28486	29006	29269	29842	30192	30621	31043	31382	31760	32352	32589	33082	33420	33948	34284	34746	35160	35589	36029	36420	36900	37432	37652	38134	38586	38934	39490	39906	40185	40746	41013	41430	41940	42479	42842	54.970728158950806	
16	43.64592003822327	stim	0		0.0	dur	4.0	./textures/oneOverF_texture_colored_1_1024_9.bmp	294	763	1291	1716	2134	2470	2838	3287	3696	4177	4495	5087	5408	5763	6198	6612	7199	7524	7812	8349	8868	9088	9540	10079	10512	10771	11276	11636	12126	12508	12960	13276	13780	14153	14666	15036	15579	15792	16338	16744	17061	17676	18086	18463	18888	19211	19596	20131	20452	20912	21306	21735	22223	22641	23046	23510	23837	24365	24789	25062	25455	25963	26511	26885	27242	27710	28021	28597	28960	29335	29721	30074	30592	31092	31532	31960	32339	32651	33103	33637	33958	34420	34828	35225	35729	36085	36400	36818	37352	37681	38080	38519	38890	39343	39884	40177	40607	41192	41625	42056	42388	42834	56.05644202232361	0.014539003372192383
16	43.66045904159546	stim	1		96.0	dur	4.0	./textures/oneOverF_texture_colored_1_1024_9.bmp	294	763	1291	1716	2134	2470	2838	3287	3696	4177	4495	5087	5408	5763	6198	6612	7199	7524	7812	8349	8868	9088	9540	10079	10512	10771	11276	11636	12126	12508	12960	13276	13780	14153	14666	15036	15579	15792	16338	16744	17061	17676	18086	18463	18888	19211	19596	20131	20452	20912	21306	21735	22223	22641	23046	23510	23837	24365	24789	25062	25455	25963	26511	26885	27242	27710	28021	28597	28960	29335	29721	30074	30592	31092	31532	31960	32339	32651	33103	33637	33958	34420	34828	35225	35729	36085	36400	36818	37352	37681	38080	38519	38890	39343	39884	40177	40607	41192	41625	42056	42388	42834	56.0709810256958	0.026665925979614258
16	43.68712496757507	stim	2		384.0	dur	4.0	./textures/oneOverF_texture_colored_1_1024_9.bmp	294	763	1291	1716	2134	2470	2838	3287	3696	4177	4495	5087	5408	5763	6198	6612	7199	7524	7812	8349	8868	9088	9540	10079	10512	10771	11276	11636	12126	12508	12960	13276	13780	14153	14666	15036	15579	15792	16338	16744	17061	17676	18086	18463	18888	19211	19596	20131	20452	20912	21306	21735	22223	22641	23046	23510	23837	24365	24789	25062	25455	25963	26511	26885	27242	27710	28021	28597	28960	29335	29721	30074	30592	31092	31532	31960	32339	32651	33103	33637	33958	34420	34828	35225	35729	36085	36400	36818	37352	37681	38080	38519	38890	39343	39884	40177	40607	41192	41625	42056	42388	42834	56.097646951675415	2.6808741092681885
16	43.8902051448822	pulse	2	t		dur	4.0	./textures/oneOverF_texture_colored_1_1024_9.bmp	294	763	1291	1716	2134	2470	2838	3287	3696	4177	4495	5087	5408	5763	6198	6612	7199	7524	7812	8349	8868	9088	9540	10079	10512	10771	11276	11636	12126	12508	12960	13276	13780	14153	14666	15036	15579	15792	16338	16744	17061	17676	18086	18463	18888	19211	19596	20131	20452	20912	21306	21735	22223	22641	23046	23510	23837	24365	24789	25062	25455	25963	26511	26885	27242	27710	28021	28597	28960	29335	29721	30074	30592	31092	31532	31960	32339	32651	33103	33637	33958	34420	34828	35225	35729	36085	36400	36818	37352	37681	38080	38519	38890	39343	39884	40177	40607	41192	41625	42056	42388	42834	56.300727128982544	
16	45.22020506858826	pulse	2	t		dur	4.0	./textures/oneOverF_texture_colored_1_1024_9.bmp	294	763	1291	1716	2134	2470	2838	3287	3696	4177	4495	5087	5408	5763	6198	6612	7199	7524	7812	8349	8868	9088	9540	10079	10512	10771	11276	11636	12126	12508	12960	13276	13780	14153	14666	15036	15579	15792	16338	16744	17061	17676	18086	18463	18888	19211	19596	20131	20452	20912	21306	21735	22223	22641	23046	23510	23837	24365	24789	25062	25455	25963	26511	26885	27242	27710	28021	28597	28960	29335	29721	30074	30592	31092	31532	31960	32339	32651	33103	33637	33958	34420	34828	35225	35729	36085	36400	36818	37352	37681	38080	38519	38890	39343	39884	40177	40607	41192	41625	42056	42388	42834	57.6307270526886	
17	46.36799907684326	stim	0		0.0	isi	8.0	./textures/oneOverF_texture_1_1024_7.bmp	325	676	1208	1535	2146	2571	2978	3333	3700	4165	4542	5061	5457	5740	6255	6677	7113	7528	7829	8336	8787	9104	9575	10032	10415	10791	11290	11637	12217	12588	12841	13439	13838	14290	14520	15042	15455	15826	16405	16845	17225	17543	17958	18347	18871	19290	19666	20056	20534	21048	21472	21809	22231	22714	22970	23449	23967	24226	24728	25051	25666	26097	26331	26894	27213	27564	28158	28396	28954	29235	29782	30271	30515	30902	31346	31774	32283	32645	33010	33437	33957	34375	34765	35208	35621	36094	36546	36990	37310	37629	38213	38631	39030	39308	39773	40346	40726	41205	41434	41871	42378	42686	58.7785210609436	0.01491403579711914
17	46.38291311264038	stim	1		96.0	isi	8.0	./textures/oneOverF_texture_1_1024_7.bmp	325	676	1208	1535	2146	2571	2978	3333	3700	4165	4542	5061	5457	5740	6255	6677	7113	7528	7829	8336	8787	9104	9575	10032	10415	10791	11290	11637	12217	12588	12841	13439	13838	14290	14520	15042	15455	15826	16405	16845	17225	17543	17958	18347	18871	19290	19666	20056	20534	21048	21472	21809	22231	22714	22970	23449	23967	24226	24728	25051	25666	26097	26331	26894	27213	27564	28158	28396	28954	29235	29782	30271	30515	30902	31346	31774	32283	32645	33010	33437	33957	34375	34765	35208	35621	36094	36546	36990	37310	37629	38213	38631	39030	39308	39773	40346	40726	41205	41434	41871	42378	42686	58.79343509674072	0.046362876892089844
17	46.42927598953247	stim	2		384.0	isi	8.0	./textures/oneOverF_texture_1_1024_7.bmp	325	676	1208	1535	2146	2571	2978	3333	3700	4165	4542	5061	5457	5740	6255	6677	7113	7528	7829	8336	8787	9104	9575	10032	10415	10791	11290	11637	12217	12588	12841	13439	13838	14290	14520	15042	15455	15826	16405	16845	17225	17543	17958	18347	18871	19290	19666	20056	20534	21048	21472	21809	22231	22714	22970	23449	23967	24226	24728	25051	25666	26097	26331	26894	27213	27564	28158	28396	28954	29235	29782	30271	30515	30902	31346	31774	32283	32645	33010	33437	33957	34375	34765	35208	35621	36094	36546	36990	37310	37629	38213	38631	39030	39308	39773	40346	40726	41205	41434	41871	42378	42686	58.83979797363281	2.683934211730957
17	46.55020618438721	pulse	2	t		isi	8.0	./textures/oneOverF_texture_1_1024_7.bmp	325	676	1208	1535	2146	2571	2978	3333	3700	4165	4542	5061	5457	5740	6255	6677	7113	7528	7829	8336	8787	9104	9575	10032	10415	10791	11290	11637	12217	12588	12841	13439	13838	14290	14520	15042	15455	15826	16405	16845	17225	17543	17958	18347	18871	19290	19666	20056	20534	21048	21472	21809	22231	22714	22970	23449	23967	24226	24728	25051	25666	26097	26331	26894	27213	27564	28158	28396	28954	29235	29782	30271	30515	30902	31346	31774	32283	32645	33010	33437	33957	34375	34765	35208	35621	36094	36546	36990	37310	37629	38213	38631	39030	39308	39773	40346	40726	41205	41434	41871	42378	42686	58.96072816848755	
17	47.880205154418945	pulse	2	t		isi	8.0	./textures/oneOverF_texture_1_1024_7.bmp	325	676	1208	1535	2146	2571	2978	3333	3700	4165	4542	5061	5457	5740	6255	6677	7113	7528	7829	8336	8787	9104	9575	10032	10415	10791	11290	11637	12217	12588	12841	13439	13838	14290	14520	15042	15455	15826	16405	16845	17225	17543	17958	18347	18871	19290	19666	20056	20534	21048	21472	21809	22231	22714	22970	23449	23967	24226	24728	25051	25666	26097	26331	26894	27213	27564	28158	28396	28954	29235	29782	30271	30515	30902	31346	31774	32283	32645	33010	33437	33957	34375	34765	35208	35621	36094	36546	36990	37310	37629	38213	38631	39030	39308	39773	40346	40726	41205	41434	41871	42378	42686	60.29072713851929	
18	49.11321020126343	stim	0		0.0	dur	16.0	./textures/oneOverF_texture_colored_1_1024_0.bmp	470	691	1107	1519	2135	2365	2870	3280	3702	4110	4613	5062	5510	5835	6317	6555	7159	7583	7921	8225	8848	9064	9710	10066	10388	10845	11304	11750	12162	12576	12923	13375	13694	14130	14591	15073	15570	15978	16367	16753	17223	17605	17907	18468	18736	19304	19731	20163	20549	20907	21356	21899	22105	22693	23135	23353	23827	24249	24658	25097	25533	26076	26433	26933	27337	27737	28015	28555	28988	29326	29783	30105	30704	31028	31511	31853	32360	32628	33196	33629	33998	34369	34830	35305	35541	35985	36477	36957	37402	37817	38234	38577	38967	39523	39935	40378	40625	41124	41518	41949	42275	42891	61.52373218536377	0.014780998229980469
18	49.12799119949341	stim	1		96.0	dur	16.0	./textures/oneOverF_texture_colored_1_1024_0.bmp	470	691	1107	1519	2135	2365	2870	3280	3702	4110	4613	5062	5510	5835	6317	6555	7159	7583	7921	8225	8848	9064	9710	10066	10388	10845	11304	11750	12162	12576	12923	13375	13694	14130	14591	15073	15570	15978	16367	16753	17223	17605	17907	18468	18736	19304	19731	20163	20549	20907	21356	21899	22105	22693	23135	23353	23827	24249	24658	25097	25533	26076	26433	26933	27337	27737	28015	28555	28988	29326	29783	30105	30704	31028	31511	31853	32360	32628	33196	33629	33998	34369	34830	35305	35541	35985	36477	36957	37402	37817	38234	38577	38967	39523	39935	40378	40625	41124	41518	41949	42275	42891	61.53851318359375	0.026714801788330078
18	49.15470600128174	stim	2		384.0	dur	16.0	./textures/oneOverF_texture_colored_1_1024_0.bmp	470	691	1107	1519	2135	2365	2870	3280	3702	4110	4613	5062	5510	5835	6317	6555	7159	7583	7921	8225	8848	9064	9710	10066	10388	10845	11304	11750	12162	12576	12923	13375	13694	14130	14591	15073	15570	15978	16367	16753	17223	17605	17907	18468	18736	19304	19731	20163	20549	20907	21356	21899	22105	22693	23135	23353	23827	24249	24658	25097	25533	26076	26433	26933	27337	27737	28015	28555	28988	29326	29783	30105	30704	31028	31511	31853	32360	32628	33196	33629	33998	34369	34830	35305	35541	35985	36477	36957	37402	37817	38234	38577	38967	39523	39935	40378	40625	41124	41518	41949	42275	42891	61.56522798538208	2.741837978363037
18	49.210206031799316	pulse	2	t		dur	16.0	./textures/oneOverF_texture_colored_1_1024_0.bmp	470	691	1107	1519	2135	2365	2870	3280	3702	4110	4613	5062	5510	5835	6317	6555	7159	7583	7921	8225	8848	9064	9710	10066	10388	10845	11304	11750	12162	12576	12923	13375	13694	14130	14591	15073	15570	15978	16367	16753	17223	17605	17907	18468	18736	19304	19731	20163	20549	20907	21356	21899	22105	22693	23135	23353	23827	24249	24658	25097	25533	26076	26433	26933	27337	27737	28015	28555	28988	29326	29783	30105	30704	31028	31511	31853	32360	32628	33196	33629	33998	34369	34830	35305	35541	35985	36477	36957	37402	37817	38234	38577	38967	39523	39935	40378	40625	41124	41518	41949	42275	42891	61.62072801589966	
18	50.54020619392395	pulse	2	t		dur	16.0	./textures/oneOverF_texture_colored_1_1024_0.bmp	470	691	1107	1519	2135	2365	2870	3280	3702	4110	4613	5062	5510	5835	6317	6555	7159	7583	7921	8225	8848	9064	9710	10066	10388	10845	11304	11750	12162	12576	12923	13375	13694	14130	14591	15073	15570	15978	16367	16753	17223	17605	17907	18468	18736	19304	19731	20163	20549	20907	21356	21899	22105	22693	23135	23353	23827	24249	24658	25097	25533	26076	26433	26933	27337	27737	28015	28555	28988	29326	29783	30105	30704	31028	31511	31853	32360	32628	33196	33629	33998	34369	34830	35305	35541	35985	36477	36957	37402	37817	38234	38577	38967	39523	39935	40378	40625	41124	41518	41949	42275	42891	62.95072817802429	
19	51.896543979644775	stim	0		0.0	isi	32.0	./textures/oneOverF_texture_1_1024_0.bmp	341	835	1250	1631	2134	2453	2831	3409	3798	4047	4655	5028	5425	5924	6142	6630	7187	7462	7808	8227	8800	9083	9601	9941	10321	10843	11236	11614	12022	12563	12868	13317	13718	14250	14684	15045	15419	15791	16246	16641	17170	17480	18049	18480	18911	19163	19646	20028	20589	21032	21331	21836	22319	22581	23123	23545	23889	24381	24810	25032	25612	25942	26339	26875	27137	27732	28027	28422	28843	29254	29672	30066	30517	31004	31538	31955	32199	32795	33115	33527	33935	34381	34874	35308	35657	35998	36392	36869	37282	37622	38188	38538	39019	39318	39792	40355	40645	41012	41639	41906	42413	42808	64.30706596374512	0.01516103744506836
19	51.911705017089844	stim	1		96.0	isi	32.0	./textures/oneOverF_texture_1_1024_0.bmp	341	835	1250	1631	2134	2453	2831	3409	3798	4047	4655	5028	5425	5924	6142	6630	7187	7462	7808	8227	8800	9083	9601	9941	10321	10843	11236	11614	12022	12563	12868	13317	13718	14250	14684	15045	15419	15791	16246	16641	17170	17480	18049	18480	18911	19163	19646	20028	20589	21032	21331	21836	22319	22581	23123	23545	23889	24381	24810	25032	25612	25942	26339	26875	27137	27732	28027	28422	28843	29254	29672	30066	30517	31004	31538	31955	32199	32795	33115	33527	33935	34381	34874	35308	35657	35998	36392	36869	37282	37622	38188	38538	39019	39318	39792	40355	40645	41012	41639	41906	42413	42808	64.32222700119019	0.05983710289001465
19	51.870206117630005	pulse	1	t		isi	32.0	./textures/oneOverF_texture_1_1024_0.bmp	341	835	1250	1631	2134	2453	2831	3409	3798	4047	4655	5028	5425	5924	6142	6630	7187	7462	7808	8227	8800	9083	9601	9941	10321	10843	11236	11614	12022	12563	12868	13317	13718	14250	14684	15045	15419	15791	16246	16641	17170	17480	18049	18480	18911	19163	19646	20028	20589	21032	21331	21836	22319	22581	23123	23545	23889	24381	24810	25032	25612	25942	26339	26875	27137	27732	28027	28422	28843	29254	29672	30066	30517	31004	31538	31955	32199	32795	33115	33527	33935	34381	34874	35308	35657	35998	36392	36869	37282	37622	38188	38538	39019	39318	39792	40355	40645	41012	41639	41906	42413	42808	64.28072810173035	
19	51.97154211997986	stim	2		384.0	isi	32.0	./textures/oneOverF_texture_1_1024_0.bmp	341	835	1250	1631	2134	2453	2831	3409	3798	4047	4655	5028	5425	5924	6142	6630	7187	7462	7808	8227	8800	9083	9601	9941	10321	10843	11236	11614	12022	12563	12868	13317	13718	14250	14684	15045	15419	15791	16246	16641	17170	17480	18049	18480	18911	19163	19646	20028	20589	21032	21331	21836	22319	22581	23123	23545	23889	24381	24810	25032	25612	25942	26339	26875	27137	27732	28027	28422	28843	29254	29672	30066	30517	31004	31538	31955	32199	32795	33115	33527	33935	34381	34874	35308	35657	35998	36392	36869	37282	37622	38188	38538	39019	39318	39792	40355	40645	41012	41639	41906	42413	42808	64.3820641040802	2.667419910430908
19	53.20020604133606	pulse	2	t		isi	32.0	./textures/oneOverF_texture_1_1024_0.bmp	341	835	1250	1631	2134	2453	2831	3409	3798	4047	4655	5028	5425	5924	6142	6630	7187	7462	7808	8227	8800	9083	9601	9941	10321	10843	11236	11614	12022	12563	12868	13317	13718	14250	14684	15045	15419	15791	16246	16641	17170	17480	18049	18480	18911	19163	19646	20028	20589	21032	21331	21836	22319	22581	23123	23545	23889	24381	24810	25032	25612	25942	26339	26875	27137	27732	28027	28422	28843	29254	29672	30066	30517	31004	31538	31955	32199	32795	33115	33527	33935	34381	34874	35308	35657	35998	36392	36869	37282	37622	38188	38538	39019	39318	39792	40355	40645	41012	41639	41906	42413	42808	65.6107280254364	
19	54.53020620346069	pulse	2	t		isi	32.0	./textures/oneOverF_texture_1_1024_0.bmp	341	835	1250	1631	2134	2453	2831	3409	3798	4047	4655	5028	5425	5924	6142	6630	7187	7462	7808	8227	8800	9083	9601	9941	10321	10843	11236	11614	12022	12563	12868	13317	13718	14250	14684	15045	15419	15791	16246	16641	17170	17480	18049	18480	18911	19163	19646	20028	20589	21032	21331	21836	22319	22581	23123	23545	23889	24381	24810	25032	25612	25942	26339	26875	27137	27732	28027	28422	28843	29254	29672	30066	30517	31004	31538	31955	32199	32795	33115	33527	33935	34381	34874	35308	35657	35998	36392	36869	37282	37622	38188	38538	39019	39318	39792	40355	40645	41012	41639	41906	42413	42808	66.94072818756104	
20	54.63896203041077	stim	0		0.0	dur	64.0	./textures/oneOverF_texture_1_1024_1.bmp	243	724	1270	1609	2132	2392	2940	3191	3799	4090	4583	5021	5384	5820	6337	6687	7078	7552	7911	8239	8764	9181	9614	10087	10543	10938	11356	11748	12223	12615	13062	13305	13689	14330	14573	15081	15523	15819	16206	16673	17165	17536	17987	18470	18816	19287	19668	20168	20632	20936	21475	21751	22258	22529	22928	23535	23833	24379	24712	25169	25629	26015	26454	26778	27124	27598	28059	28560	28986	29413	29732	30212	30630	31045	31338	31924	32193	32812	33158	33547	34018	34324	34686	35333	35727	36157	36525	36927	37391	37756	38220	38557	38898	39311	39756	40367	40730	41016	41459	41997	42447	42719	67.04948401451111	0.014525175094604492
20	54.65348720550537	stim	1		96.0	dur	64.0	./textures/oneOverF_texture_1_1024_1.bmp	243	724	1270	1609	2132	2392	2940	3191	3799	4090	4583	5021	5384	5820	6337	6687	7078	7552	7911	8239	8764	9181	9614	10087	10543	10938	11356	11748	12223	12615	13062	13305	13689	14330	14573	15081	15523	15819	16206	16673	17165	17536	17987	18470	18816	19287	19668	20168	20632	20936	21475	21751	22258	22529	22928	23535	23833	24379	24712	25169	25629	26015	26454	26778	27124	27598	28059	28560	28986	29413	29732	30212	30630	31045	31338	31924	32193	32812	33158	33547	34018	34324	34686	35333	35727	36157	36525	36927	37391	37756	38220	38557	38898	39311	39756	40367	40730	41016	41459	41997	42447	42719	67.06400918960571	0.026890993118286133
20	54.68037819862366	stim	2		384.0	dur	64.0	./textures/oneOverF_texture_1_1024_1.bmp	243	724	1270	1609	2132	2392	2940	3191	3799	4090	4583	5021	5384	5820	6337	6687	7078	7552	7911	8239	8764	9181	9614	10087	10543	10938	11356	11748	12223	12615	13062	13305	13689	14330	14573	15081	15523	15819	16206	16673	17165	17536	17987	18470	18816	19287	19668	20168	20632	20936	21475	21751	22258	22529	22928	23535	23833	24379	24712	25169	25629	26015	26454	26778	27124	27598	28059	28560	28986	29413	29732	30212	30630	31045	31338	31924	32193	32812	33158	33547	34018	34324	34686	35333	35727	36157	36525	36927	37391	37756	38220	38557	38898	39311	39756	40367	40730	41016	41459	41997	42447	42719	67.090900182724	2.7668659687042236
20	55.86020612716675	pulse	2	t		dur	64.0	./textures/oneOverF_texture_1_1024_1.bmp	243	724	1270	1609	2132	2392	2940	3191	3799	4090	4583	5021	5384	5820	6337	6687	7078	7552	7911	8239	8764	9181	9614	10087	10543	10938	11356	11748	12223	12615	13062	13305	13689	14330	14573	15081	15523	15819	16206	16673	17165	17536	17987	18470	18816	19287	19668	20168	20632	20936	21475	21751	22258	22529	22928	23535	23833	24379	24712	25169	25629	26015	26454	26778	27124	27598	28059	28560	28986	29413	29732	30212	30630	31045	31338	31924	32193	32812	33158	33547	34018	34324	34686	35333	35727	36157	36525	36927	37391	37756	38220	38557	38898	39311	39756	40367	40730	41016	41459	41997	42447	42719	68.27072811126709	
20	57.190205097198486	pulse	2	t		dur	64.0	./textures/oneOverF_texture_1_1024_1.bmp	243	724	1270	1609	2132	2392	2940	3191	3799	4090	4583	5021	5384	5820	6337	6687	7078	7552	7911	8239	8764	9181	9614	10087	10543	10938	11356	11748	12223	12615	13062	13305	13689	14330	14573	15081	15523	15819	16206	16673	17165	17536	17987	18470	18816	19287	19668	20168	20632	20936	21475	21751	22258	22529	22928	23535	23833	24379	24712	25169	25629	26015	26454	26778	27124	27598	28059	28560	28986	29413	29732	30212	30630	31045	31338	31924	32193	32812	33158	33547	34018	34324	34686	35333	35727	36157	36525	36927	37391	37756	38220	38557	38898	39311	39756	40367	40730	41016	41459	41997	42447	42719	69.60072708129883	
21	57.44724416732788	stim	0		0.0	isi	0.0	./textures/oneOverF_texture_1_1024_6.bmp	299	726	1207	1643	1942	2455	2766	3217	3726	4191	4467	5003	5417	5711	6311	6724	7117	7397	7884	8263	8792	9141	9599	9948	10446	10894	11251	11634	12194	12575	12860	13415	13822	14157	14541	15073	15531	15894	16355	16699	17275	17623	18002	18409	18832	19328	19737	20192	20483	20952	21264	21794	22294	22571	23022	23474	23760	24207	24764	25181	25525	26069	26407	26826	27355	27564	28110	28451	28947	29308	29751	30209	30553	30960	31369	31829	32185	32729	33005	33493	34015	34395	34701	35181	35705	36127	36512	36870	37303	37746	38041	38507	39070	39421	39825	40261	40746	41125	41430	42054	42338	42836	69.85776615142822	0.014750957489013672
21	57.461995124816895	stim	1		96.0	isi	0.0	./textures/oneOverF_texture_1_1024_6.bmp	299	726	1207	1643	1942	2455	2766	3217	3726	4191	4467	5003	5417	5711	6311	6724	7117	7397	7884	8263	8792	9141	9599	9948	10446	10894	11251	11634	12194	12575	12860	13415	13822	14157	14541	15073	15531	15894	16355	16699	17275	17623	18002	18409	18832	19328	19737	20192	20483	20952	21264	21794	22294	22571	23022	23474	23760	24207	24764	25181	25525	26069	26407	26826	27355	27564	28110	28451	28947	29308	29751	30209	30553	30960	31369	31829	32185	32729	33005	33493	34015	34395	34701	35181	35705	36127	36512	36870	37303	37746	38041	38507	39070	39421	39825	40261	40746	41125	41430	42054	42338	42836	69.87251710891724	0.026931047439575195
21	57.48892617225647	stim	2		384.0	isi	0.0	./textures/oneOverF_texture_1_1024_6.bmp	299	726	1207	1643	1942	2455	2766	3217	3726	4191	4467	5003	5417	5711	6311	6724	7117	7397	7884	8263	8792	9141	9599	9948	10446	10894	11251	11634	12194	12575	12860	13415	13822	14157	14541	15073	15531	15894	16355	16699	17275	17623	18002	18409	18832	19328	19737	20192	20483	20952	21264	21794	22294	22571	23022	23474	23760	24207	24764	25181	25525	26069	26407	26826	27355	27564	28110	28451	28947	29308	29751	30209	30553	30960	31369	31829	32185	32729	33005	33493	34015	34395	34701	35181	35705	36127	36512	36870	37303	37746	38041	38507	39070	39421	39825	40261	40746	41125	41430	42054	42338	42836	69.89944815635681	2.6669600009918213
21	58.520268201828	pulse	2	t		isi	0.0	./textures/oneOverF_texture_1_1024_6.bmp	299	726	1207	1643	1942	2455	2766	3217	3726	4191	4467	5003	5417	5711	6311	6724	7117	7397	7884	8263	8792	9141	9599	9948	10446	10894	11251	11634	12194	12575	12860	13415	13822	14157	14541	15073	15531	15894	16355	16699	17275	17623	18002	18409	18832	19328	19737	20192	20483	20952	21264	21794	22294	22571	23022	23474	23760	24207	24764	25181	25525	26069	26407	26826	27355	27564	28110	28451	28947	29308	29751	30209	30553	30960	31369	31829	32185	32729	33005	33493	34015	34395	34701	35181	35705	36127	36512	36870	37303	37746	38041	38507	39070	39421	39825	40261	40746	41125	41430	42054	42338	42836	70.93079018592834	
21	59.85020613670349	pulse	2	t		isi	0.0	./textures/oneOverF_texture_1_1024_6.bmp	299	726	1207	1643	1942	2455	2766	3217	3726	4191	4467	5003	5417	5711	6311	6724	7117	7397	7884	8263	8792	9141	9599	9948	10446	10894	11251	11634	12194	12575	12860	13415	13822	14157	14541	15073	15531	15894	16355	16699	17275	17623	18002	18409	18832	19328	19737	20192	20483	20952	21264	21794	22294	22571	23022	23474	23760	24207	24764	25181	25525	26069	26407	26826	27355	27564	28110	28451	28947	29308	29751	30209	30553	30960	31369	31829	32185	32729	33005	33493	34015	34395	34701	35181	35705	36127	36512	36870	37303	37746	38041	38507	39070	39421	39825	40261	40746	41125	41430	42054	42338	42836	72.26072812080383	
22	60.15588617324829	stim	0		0.0	dur	2.0	./textures/oneOverF_texture_colored_1_1024_6.bmp	244	708	1084	1565	2116	2442	2940	3294	3762	4094	4590	4869	5286	5833	6221	6645	7181	7563	7923	8318	8658	9073	9580	9975	10341	10828	11265	11587	12218	12640	12885	13378	13681	14271	14619	15168	15433	15904	16292	16654	17113	17523	18018	18374	18906	19260	19788	20022	20577	20941	21367	21741	22176	22731	23007	23413	23903	24259	24723	25188	25491	25873	26320	26750	27148	27620	28034	28405	28899	29351	29660	30163	30693	30967	31524	31913	32255	32791	33084	33477	33842	34343	34719	35157	35750	36146	36376	37019	37297	37771	38098	38689	39051	39512	39920	40197	40676	41117	41638	41914	42473	42747	72.56640815734863	0.014613866806030273
22	60.17050004005432	stim	1		96.0	dur	2.0	./textures/oneOverF_texture_colored_1_1024_6.bmp	244	708	1084	1565	2116	2442	2940	3294	3762	4094	4590	4869	5286	5833	6221	6645	7181	7563	7923	8318	8658	9073	9580	9975	10341	10828	11265	11587	12218	12640	12885	13378	13681	14271	14619	15168	15433	15904	16292	16654	17113	17523	18018	18374	18906	19260	19788	20022	20577	20941	21367	21741	22176	22731	23007	23413	23903	24259	24723	25188	25491	25873	26320	26750	27148	27620	28034	28405	28899	29351	29660	30163	30693	30967	31524	31913	32255	32791	33084	33477	33842	34343	34719	35157	35750	36146	36376	37019	37297	37771	38098	38689	39051	39512	39920	40197	40676	41117	41638	41914	42473	42747	72.58102202415466	0.027245044708251953
22	60.19774508476257	stim	2		384.0	dur	2.0	./textures/oneOverF_texture_colored_1_1024_6.bmp	244	708	1084	1565	2116	2442	2940	3294	3762	4094	4590	4869	5286	5833	6221	6645	7181	7563	7923	8318	8658	9073	9580	9975	10341	10828	11265	11587	12218	12640	12885	13378	13681	14271	14619	15168	15433	15904	16292	16654	17113	17523	18018	18374	18906	19260	19788	20022	20577	20941	21367	21741	22176	22731	23007	23413	23903	24259	24723	25188	25491	25873	26320	26750	27148	27620	28034	28405	28899	29351	29660	30163	30693	30967	31524	31913	32255	32791	33084	33477	33842	34343	34719	35157	35750	36146	36376	37019	37297	37771	38098	38689	39051	39512	39920	40197	40676	41117	41638	41914	42473	42747	72.60826706886292	2.6669199466705322
22	61.18020510673523	pulse	2	t		dur	2.0	./textures/oneOverF_texture_colored_1_1024_6.bmp	244	708	1084	1565	2116	2442	2940	3294	3762	4094	4590	4869	5286	5833	6221	6645	7181	7563	7923	8318	8658	9073	9580	9975	10341	10828	11265	11587	12218	12640	12885	13378	13681	14271	14619	15168	15433	15904	16292	16654	17113	17523	18018	18374	18906	19260	19788	20022	20577	20941	21367	21741	22176	22731	23007	23413	23903	24259	24723	25188	25491	25873	26320	26750	27148	27620	28034	28405	28899	29351	29660	30163	30693	30967	31524	31913	32255	32791	33084	33477	33842	34343	34719	35157	35750	36146	36376	37019	37297	37771	38098	38689	39051	39512	39920	40197	40676	41117	41638	41914	42473	42747	73.59072709083557	
22	62.5102059841156	pulse	2	t		dur	2.0	./textures/oneOverF_texture_colored_1_1024_6.bmp	244	708	1084	1565	2116	2442	2940	3294	3762	4094	4590	4869	5286	5833	6221	6645	7181	7563	7923	8318	8658	9073	9580	9975	10341	10828	11265	11587	12218	12640	12885	13378	13681	14271	14619	15168	15433	15904	16292	16654	17113	17523	18018	18374	18906	19260	19788	20022	20577	20941	21367	21741	22176	22731	23007	23413	23903	24259	24723	25188	25491	25873	26320	26750	27148	27620	28034	28405	28899	29351	29660	30163	30693	30967	31524	31913	32255	32791	33084	33477	33842	34343	34719	35157	35750	36146	36376	37019	37297	37771	38098	38689	39051	39512	39920	40197	40676	41117	41638	41914	42473	42747	74.92072796821594	
23	62.864665031433105	stim	0		0.0	isi	4.0	./textures/oneOverF_texture_1_1024_8.bmp	305	691	1144	1599	2057	2441	2965	3233	3714	4144	4493	4892	5463	5749	6214	6631	7134	7586	7968	8416	8695	9162	9555	10057	10340	10810	11388	11620	12038	12426	13074	13423	13785	14315	14541	15175	15532	15969	16265	16676	17273	17692	17978	18416	18803	19194	19762	20195	20564	20824	21457	21735	22209	22705	23155	23532	23870	24330	24688	25218	25614	26042	26496	26701	27121	27621	28138	28514	28899	29360	29798	30226	30498	31102	31440	31896	32254	32700	33088	33606	34011	34289	34805	35310	35700	36159	36373	36822	37423	37760	38267	38509	38974	39300	39846	40241	40631	41015	41592	42044	42429	42842	75.27518701553345	0.014497041702270508
23	62.879162073135376	stim	1		96.0	isi	4.0	./textures/oneOverF_texture_1_1024_8.bmp	305	691	1144	1599	2057	2441	2965	3233	3714	4144	4493	4892	5463	5749	6214	6631	7134	7586	7968	8416	8695	9162	9555	10057	10340	10810	11388	11620	12038	12426	13074	13423	13785	14315	14541	15175	15532	15969	16265	16676	17273	17692	17978	18416	18803	19194	19762	20195	20564	20824	21457	21735	22209	22705	23155	23532	23870	24330	24688	25218	25614	26042	26496	26701	27121	27621	28138	28514	28899	29360	29798	30226	30498	31102	31440	31896	32254	32700	33088	33606	34011	34289	34805	35310	35700	36159	36373	36822	37423	37760	38267	38509	38974	39300	39846	40241	40631	41015	41592	42044	42429	42842	75.28968405723572	0.04392290115356445
23	62.92308497428894	stim	2		384.0	isi	4.0	./textures/oneOverF_texture_1_1024_8.bmp	305	691	1144	1599	2057	2441	2965	3233	3714	4144	4493	4892	5463	5749	6214	6631	7134	7586	7968	8416	8695	9162	9555	10057	10340	10810	11388	11620	12038	12426	13074	13423	13785	14315	14541	15175	15532	15969	16265	16676	17273	17692	17978	18416	18803	19194	19762	20195	20564	20824	21457	21735	22209	22705	23155	23532	23870	24330	24688	25218	25614	26042	26496	26701	27121	27621	28138	28514	28899	29360	29798	30226	30498	31102	31440	31896	32254	32700	33088	33606	34011	34289	34805	35310	35700	36159	36373	36822	37423	37760	38267	38509	38974	39300	39846	40241	40631	41015	41592	42044	42429	42842	75.33360695838928	2.6753032207489014
23	63.84020519256592	pulse	2	t		isi	4.0	./textures/oneOverF_texture_1_1024_8.bmp	305	691	1144	1599	2057	2441	2965	3233	3714	4144	4493	4892	5463	5749	6214	6631	7134	7586	7968	8416	8695	9162	9555	10057	10340	10810	11388	11620	12038	12426	13074	13423	13785	14315	14541	15175	15532	15969	16265	16676	17273	17692	17978	18416	18803	19194	19762	20195	20564	20824	21457	21735	22209	22705	23155	23532	23870	24330	24688	25218	25614	26042	26496	26701	27121	27621	28138	28514	28899	29360	29798	30226	30498	31102	31440	31896	32254	32700	33088	33606	34011	34289	34805	35310	35700	36159	36373	36822	37423	37760	38267	38509	38974	39300	39846	40241	40631	41015	41592	42044	42429	42842	76.25072717666626	
23	65.17020511627197	pulse	2	t		isi	4.0	./textures/oneOverF_texture_1_1024_8.bmp	305	691	1144	1599	2057	2441	2965	3233	3714	4144	4493	4892	5463	5749	6214	6631	7134	7586	7968	8416	8695	9162	9555	10057	10340	10810	11388	11620	12038	12426	13074	13423	13785	14315	14541	15175	15532	15969	16265	16676	17273	17692	17978	18416	18803	19194	19762	20195	20564	20824	21457	21735	22209	22705	23155	23532	23870	24330	24688	25218	25614	26042	26496	26701	27121	27621	28138	28514	28899	29360	29798	30226	30498	31102	31440	31896	32254	32700	33088	33606	34011	34289	34805	35310	35700	36159	36373	36822	37423	37760	38267	38509	38974	39300	39846	40241	40631	41015	41592	42044	42429	42842	77.58072710037231	
24	65.59838819503784	stim	0		0.0	dur	8.0	./textures/oneOverF_texture_1_1024_10.bmp	399	887	1167	1558	2074	2393	2830	3185	3824	4034	4513	5027	5495	5892	6292	6777	7060	7501	7959	8309	8699	9089	9564	9993	10409	10945	11202	11694	12150	12498	13057	13415	13875	14124	14684	14988	15397	15838	16334	16723	17154	17556	18008	18420	18850	19288	19599	20201	20487	20945	21294	21799	22229	22652	23082	23431	23960	24351	24722	25068	25469	26037	26383	26766	27203	27586	28138	28570	28900	29366	29663	30280	30666	30928	31494	31891	32336	32622	33174	33530	33858	34487	34820	35125	35663	36104	36419	36847	37203	37753	38172	38524	39000	39399	39750	40214	40725	41089	41633	41883	42347	42842	78.00891017913818	0.014615774154663086
24	65.6130039691925	stim	1		96.0	dur	8.0	./textures/oneOverF_texture_1_1024_10.bmp	399	887	1167	1558	2074	2393	2830	3185	3824	4034	4513	5027	5495	5892	6292	6777	7060	7501	7959	8309	8699	9089	9564	9993	10409	10945	11202	11694	12150	12498	13057	13415	13875	14124	14684	14988	15397	15838	16334	16723	17154	17556	18008	18420	18850	19288	19599	20201	20487	20945	21294	21799	22229	22652	23082	23431	23960	24351	24722	25068	25469	26037	26383	26766	27203	27586	28138	28570	28900	29366	29663	30280	30666	30928	31494	31891	32336	32622	33174	33530	33858	34487	34820	35125	35663	36104	36419	36847	37203	37753	38172	38524	39000	39399	39750	40214	40725	41089	41633	41883	42347	42842	78.02352595329285	0.027142047882080078
24	65.64014601707458	stim	2		384.0	dur	8.0	./textures/oneOverF_texture_1_1024_10.bmp	399	887	1167	1558	2074	2393	2830	3185	3824	4034	4513	5027	5495	5892	6292	6777	7060	7501	7959	8309	8699	9089	9564	9993	10409	10945	11202	11694	12150	12498	13057	13415	13875	14124	14684	14988	15397	15838	16334	16723	17154	17556	18008	18420	18850	19288	19599	20201	20487	20945	21294	21799	22229	22652	23082	23431	23960	24351	24722	25068	25469	26037	26383	26766	27203	27586	28138	28570	28900	29366	29663	30280	30666	30928	31494	31891	32336	32622	33174	33530	33858	34487	34820	35125	35663	36104	36419	36847	37203	37753	38172	38524	39000	39399	39750	40214	40725	41089	41633	41883	42347	42842	78.05066800117493	2.6669020652770996
24	66.50020599365234	pulse	2	t		dur	8.0	./textures/oneOverF_texture_1_1024_10.bmp	399	887	1167	1558	2074	2393	2830	3185	3824	4034	4513	5027	5495	5892	6292	6777	7060	7501	7959	8309	8699	9089	9564	9993	10409	10945	11202	11694	12150	12498	13057	13415	13875	14124	14684	14988	15397	15838	16334	16723	17154	17556	18008	18420	18850	19288	19599	20201	20487	20945	21294	21799	22229	22652	23082	23431	23960	24351	24722	25068	25469	26037	26383	26766	27203	27586	28138	28570	28900	29366	29663	30280	30666	30928	31494	31891	32336	32622	33174	33530	33858	34487	34820	35125	35663	36104	36419	36847	37203	37753	38172	38524	39000	39399	39750	40214	40725	41089	41633	41883	42347	42842	78.91072797775269	
24	67.83020615577698	pulse	2	t		dur	8.0	./textures/oneOverF_texture_1_1024_10.bmp	399	887	1167	1558	2074	2393	2830	3185	3824	4034	4513	5027	5495	5892	6292	6777	7060	7501	7959	8309	8699	9089	9564	9993	10409	10945	11202	11694	12150	12498	13057	13415	13875	14124	14684	14988	15397	15838	16334	16723	17154	17556	18008	18420	18850	19288	19599	20201	20487	20945	21294	21799	22229	22652	23082	23431	23960	24351	24722	25068	25469	26037	26383	26766	27203	27586	28138	28570	28900	29366	29663	30280	30666	30928	31494	31891	32336	32622	33174	33530	33858	34487	34820	35125	35663	36104	36419	36847	37203	37753	38172	38524	39000	39399	39750	40214	40725	41089	41633	41883	42347	42842	80.24072813987732	
25	68.30704808235168	stim	0		0.0	isi	16.0	./textures/oneOverF_texture_1_1024_9.bmp	389	820	1214	1570	1962	2382	2948	3255	3692	4091	4489	4960	5504	5729	6343	6743	7196	7556	7896	8299	8712	9223	9580	9950	10513	10953	11247	11724	12184	12566	12958	13307	13698	14282	14662	14994	15369	15903	16257	16654	17161	17660	17917	18497	18900	19313	19766	20131	20539	20906	21382	21722	22306	22684	23144	23513	23996	24332	24722	25157	25649	26088	26311	26780	27191	27606	27979	28556	28850	29452	29846	30084	30549	31010	31389	31875	32387	32807	33222	33595	33946	34386	34788	35286	35635	35994	36382	36851	37207	37652	38185	38686	39079	39468	39848	40376	40717	40990	41466	41963	42390	42838	80.71757006645203	0.015208959579467773
25	68.32225704193115	stim	1		96.0	isi	16.0	./textures/oneOverF_texture_1_1024_9.bmp	389	820	1214	1570	1962	2382	2948	3255	3692	4091	4489	4960	5504	5729	6343	6743	7196	7556	7896	8299	8712	9223	9580	9950	10513	10953	11247	11724	12184	12566	12958	13307	13698	14282	14662	14994	15369	15903	16257	16654	17161	17660	17917	18497	18900	19313	19766	20131	20539	20906	21382	21722	22306	22684	23144	23513	23996	24332	24722	25157	25649	26088	26311	26780	27191	27606	27979	28556	28850	29452	29846	30084	30549	31010	31389	31875	32387	32807	33222	33595	33946	34386	34788	35286	35635	35994	36382	36851	37207	37652	38185	38686	39079	39468	39848	40376	40717	40990	41466	41963	42390	42838	80.7327790260315	0.04330110549926758
25	68.36555814743042	stim	2		384.0	isi	16.0	./textures/oneOverF_texture_1_1024_9.bmp	389	820	1214	1570	1962	2382	2948	3255	3692	4091	4489	4960	5504	5729	6343	6743	7196	7556	7896	8299	8712	9223	9580	9950	10513	10953	11247	11724	12184	12566	12958	13307	13698	14282	14662	14994	15369	15903	16257	16654	17161	17660	17917	18497	18900	19313	19766	20131	20539	20906	21382	21722	22306	22684	23144	23513	23996	24332	24722	25157	25649	26088	26311	26780	27191	27606	27979	28556	28850	29452	29846	30084	30549	31010	31389	31875	32387	32807	33222	33595	33946	34386	34788	35286	35635	35994	36382	36851	37207	37652	38185	38686	39079	39468	39848	40376	40717	40990	41466	41963	42390	42838	80.77608013153076	2.666929006576538
25	69.16020512580872	pulse	2	t		isi	16.0	./textures/oneOverF_texture_1_1024_9.bmp	389	820	1214	1570	1962	2382	2948	3255	3692	4091	4489	4960	5504	5729	6343	6743	7196	7556	7896	8299	8712	9223	9580	9950	10513	10953	11247	11724	12184	12566	12958	13307	13698	14282	14662	14994	15369	15903	16257	16654	17161	17660	17917	18497	18900	19313	19766	20131	20539	20906	21382	21722	22306	22684	23144	23513	23996	24332	24722	25157	25649	26088	26311	26780	27191	27606	27979	28556	28850	29452	29846	30084	30549	31010	31389	31875	32387	32807	33222	33595	33946	34386	34788	35286	35635	35994	36382	36851	37207	37652	38185	38686	39079	39468	39848	40376	40717	40990	41466	41963	42390	42838	81.57072710990906	
25	70.49021816253662	pulse	2	t		isi	16.0	./textures/oneOverF_texture_1_1024_9.bmp	389	820	1214	1570	1962	2382	2948	3255	3692	4091	4489	4960	5504	5729	6343	6743	7196	7556	7896	8299	8712	9223	9580	9950	10513	10953	11247	11724	12184	12566	12958	13307	13698	14282	14662	14994	15369	15903	16257	16654	17161	17660	17917	18497	18900	19313	19766	20131	20539	20906	21382	21722	22306	22684	23144	23513	23996	24332	24722	25157	25649	26088	26311	26780	27191	27606	27979	28556	28850	29452	29846	30084	30549	31010	31389	31875	32387	32807	33222	33595	33946	34386	34788	35286	35635	35994	36382	36851	37207	37652	38185	38686	39079	39468	39848	40376	40717	40990	41466	41963	42390	42838	82.90074014663696	
26	71.03248715400696	stim	0		0.0	dur	32.0	./textures/oneOverF_texture_colored_1_1024_9.bmp	414	844	1156	1539	1998	2364	2976	3329	3830	4203	4607	5081	5438	5909	6275	6593	7036	7579	7851	8332	8871	9128	9504	9928	10511	10918	11359	11640	12036	12442	13042	13497	13873	14188	14722	15053	15483	15979	16230	16771	17045	17659	18110	18468	18752	19240	19791	20114	20458	20906	21407	21724	22117	22568	23080	23460	23863	24310	24751	25217	25586	25985	26509	26911	27280	27592	28108	28554	29031	29393	29825	30264	30687	31106	31457	31881	32372	32614	33111	33546	33855	34446	34842	35216	35659	36112	36402	36874	37365	37831	38233	38610	38993	39539	39781	40150	40746	41082	41493	41867	42387	42817	83.4430091381073	0.015101909637451172
26	71.04758906364441	stim	1		96.0	dur	32.0	./textures/oneOverF_texture_colored_1_1024_9.bmp	414	844	1156	1539	1998	2364	2976	3329	3830	4203	4607	5081	5438	5909	6275	6593	7036	7579	7851	8332	8871	9128	9504	9928	10511	10918	11359	11640	12036	12442	13042	13497	13873	14188	14722	15053	15483	15979	16230	16771	17045	17659	18110	18468	18752	19240	19791	20114	20458	20906	21407	21724	22117	22568	23080	23460	23863	24310	24751	25217	25586	25985	26509	26911	27280	27592	28108	28554	29031	29393	29825	30264	30687	31106	31457	31881	32372	32614	33111	33546	33855	34446	34842	35216	35659	36112	36402	36874	37365	37831	38233	38610	38993	39539	39781	40150	40746	41082	41493	41867	42387	42817	83.45811104774475	0.026652097702026367
26	71.07424116134644	stim	2		384.0	dur	32.0	./textures/oneOverF_texture_colored_1_1024_9.bmp	414	844	1156	1539	1998	2364	2976	3329	3830	4203	4607	5081	5438	5909	6275	6593	7036	7579	7851	8332	8871	9128	9504	9928	10511	10918	11359	11640	12036	12442	13042	13497	13873	14188	14722	15053	15483	15979	16230	16771	17045	17659	18110	18468	18752	19240	19791	20114	20458	20906	21407	21724	22117	22568	23080	23460	23863	24310	24751	25217	25586	25985	26509	26911	27280	27592	28108	28554	29031	29393	29825	30264	30687	31106	31457	31881	32372	32614	33111	33546	33855	34446	34842	35216	35659	36112	36402	36874	37365	37831	38233	38610	38993	39539	39781	40150	40746	41082	41493	41867	42387	42817	83.48476314544678	2.6753649711608887
26	71.82020497322083	pulse	2	t		dur	32.0	./textures/oneOverF_texture_colored_1_1024_9.bmp	414	844	1156	1539	1998	2364	2976	3329	3830	4203	4607	5081	5438	5909	6275	6593	7036	7579	7851	8332	8871	9128	9504	9928	10511	10918	11359	11640	12036	12442	13042	13497	13873	14188	14722	15053	15483	15979	16230	16771	17045	17659	18110	18468	18752	19240	19791	20114	20458	20906	21407	21724	22117	22568	23080	23460	23863	24310	24751	25217	25586	25985	26509	26911	27280	27592	28108	28554	29031	29393	29825	30264	30687	31106	31457	31881	32372	32614	33111	33546	33855	34446	34842	35216	35659	36112	36402	36874	37365	37831	38233	38610	38993	39539	39781	40150	40746	41082	41493	41867	42387	42817	84.23072695732117	
26	73.15020513534546	pulse	2	t		dur	32.0	./textures/oneOverF_texture_colored_1_1024_9.bmp	414	844	1156	1539	1998	2364	2976	3329	3830	4203	4607	5081	5438	5909	6275	6593	7036	7579	7851	8332	8871	9128	9504	9928	10511	10918	11359	11640	12036	12442	13042	13497	13873	14188	14722	15053	15483	15979	16230	16771	17045	17659	18110	18468	18752	19240	19791	20114	20458	20906	21407	21724	22117	22568	23080	23460	23863	24310	24751	25217	25586	25985	26509	26911	27280	27592	28108	28554	29031	29393	29825	30264	30687	31106	31457	31881	32372	32614	33111	33546	33855	34446	34842	35216	35659	36112	36402	36874	37365	37831	38233	38610	38993	39539	39781	40150	40746	41082	41493	41867	42387	42817	85.5607271194458	
27	73.74960613250732	stim	0		0.0	isi	64.0	./textures/oneOverF_texture_1_1024_7.bmp	405	743	1186	1524	2001	2513	2925	3309	3787	4221	4610	4927	5327	5906	6193	6742	7025	7531	7913	8406	8762	9082	9665	10068	10508	10889	11333	11672	12134	12434	12901	13282	13690	14247	14551	15157	15389	15946	16343	16841	17261	17622	17943	18343	18949	19186	19774	20064	20437	21048	21373	21765	22143	22585	23069	23505	23822	24202	24743	25089	25675	26068	26346	26882	27243	27574	28195	28504	28831	29241	29829	30138	30668	30917	31495	31858	32350	32599	33226	33453	34014	34374	34885	35311	35695	36043	36367	36972	37430	37718	38083	38585	38951	39520	39783	40306	40585	41092	41638	42025	42375	42734	86.16012811660767	0.014816999435424805
