trial_nr	onset	event_type	phase	response	nr_frames	flicker_speed	onset_abs	duration
dummy	0.008383035659790039	stim	0		0.0	134.0	40.730242013931274	0.0019989013671875
dummy	0.010381937026977539	stim	1		0.0	134.0	40.73224091529846	0.0010001659393310547
dummy	0.011382102966308594	stim	2		2015.0	134.0	40.73324108123779	16.788578033447266
dummy	1.591719150543213	pulse	2	t		134.0	42.3135781288147	
dummy	3.1917531490325928	pulse	2	t		134.0	43.91361212730408	
dummy	4.791738033294678	pulse	2	t		134.0	45.51359701156616	
dummy	6.391744136810303	pulse	2	t		134.0	47.11360311508179	
dummy	7.991775989532471	pulse	2	t		134.0	48.713634967803955	
dummy	9.591660976409912	pulse	2	t		134.0	50.3135199546814	
dummy	11.19179105758667	pulse	2	t		134.0	51.913650035858154	
dummy	12.791649103164673	pulse	2	t		134.0	53.51350808143616	
dummy	14.39175009727478	pulse	2	t		134.0	55.113609075546265	
dummy	15.991794109344482	pulse	2	t		134.0	56.71365308761597	
0	16.799960136413574	stim	0		96.0	134.0	57.52181911468506	0.7999918460845947
0	17.591782093048096	pulse	0	t		134.0	58.31364107131958	
0	17.59995198249817	stim	1		361.0	134.0	58.32181096076965	3.008211135864258
0	19.191797971725464	pulse	1	t		134.0	59.91365694999695	
0	20.608163118362427	stim	2		2232.0	134.0	61.33002209663391	18.600011825561523
0	20.791818141937256	pulse	2	t		134.0	61.51367712020874	
0	22.39168405532837	pulse	2	t		134.0	63.11354303359985	
0	23.991737127304077	pulse	2	t		134.0	64.71359610557556	
0	25.59161114692688	pulse	2	t		134.0	66.31347012519836	
0	27.191795110702515	pulse	2	t		134.0	67.913654088974	
0	28.791568994522095	pulse	2	t		134.0	69.51342797279358	
0	30.391659021377563	pulse	2	t		134.0	71.11351799964905	
0	31.99164605140686	pulse	2	t		134.0	72.71350502967834	
0	33.59164214134216	pulse	2	t		134.0	74.31350111961365	
0	35.19166898727417	pulse	2	t		134.0	75.91352796554565	
0	36.79162001609802	pulse	2	t		134.0	77.5134789943695	
0	38.39158010482788	pulse	2	t		134.0	79.11343908309937	
1	39.20817494392395	stim	0		95.0	134.0	79.93003392219543	0.7916321754455566
1	39.99161696434021	pulse	0	t		134.0	80.7134759426117	
1	39.99980711936951	stim	1		361.0	134.0	80.72166609764099	3.0083088874816895
1	41.59151005744934	pulse	1	t		134.0	82.31336903572083	
1	43.008116006851196	stim	2		1656.0	134.0	83.72997498512268	13.799957036972046
1	43.19158697128296	pulse	2	t		134.0	83.91344594955444	
1	43.22482514381409	response	2	b		134.0	83.94668412208557	
1	44.7915940284729	pulse	2	t		134.0	85.51345300674438	
1	46.39152193069458	pulse	2	t		134.0	87.11338090896606	
1	47.9915509223938	pulse	2	t		134.0	88.71340990066528	
1	48.97493314743042	response	2	b		134.0	89.6967921257019	
1	49.59150815010071	pulse	2	t		134.0	90.31336712837219	
1	51.19163107872009	pulse	2	t		134.0	91.91349005699158	
1	52.74152112007141	response	2	b		134.0	93.4633800983429	
1	52.79151201248169	pulse	2	t		134.0	93.51337099075317	
1	54.391602993011475	pulse	2	t		134.0	95.11346197128296	
1	55.99146914482117	pulse	2	t		134.0	96.71332812309265	
2	56.80807304382324	stim	0		95.0	134.0	97.52993202209473	0.7916679382324219
2	57.59152603149414	pulse	0	t		134.0	98.31338500976562	
2	57.599740982055664	stim	1		361.0	134.0	98.32159996032715	3.0082671642303467
2	58.2330801486969	response	1	b		134.0	98.95493912696838	
2	59.19140911102295	pulse	1	t		134.0	99.91326808929443	
2	60.60800814628601	stim	2		2040.0	134.0	101.3298671245575	16.999979972839355
2	60.79150199890137	pulse	2	t		134.0	101.51336097717285	
2	62.391539096832275	pulse	2	t		134.0	103.11339807510376	
2	63.35810995101929	response	2	b		134.0	104.07996892929077	
2	63.99142098426819	pulse	2	t		134.0	104.71327996253967	
2	65.59148907661438	pulse	2	t		134.0	106.31334805488586	
2	67.19139695167542	pulse	2	t		134.0	107.9132559299469	
2	68.68307209014893	response	2	b		134.0	109.40493106842041	
2	68.7914309501648	pulse	2	t		134.0	109.51328992843628	
2	70.3914680480957	pulse	2	t		134.0	111.11332702636719	
2	71.99145293235779	pulse	2	t		134.0	112.71331191062927	
2	73.59148097038269	pulse	2	t		134.0	114.31333994865417	
2	73.90806603431702	response	2	b		134.0	114.6299250125885	
2	75.19140410423279	pulse	2	t		134.0	115.91326308250427	
2	76.79144096374512	pulse	2	t		134.0	117.5132999420166	
3	77.60798811912537	stim	0		95.0	134.0	118.32984709739685	0.7916200160980225
3	77.76652812957764	response	0	b		134.0	118.48838710784912	
3	78.39140009880066	pulse	0	t		134.0	119.11325907707214	
3	78.39960813522339	stim	1		361.0	134.0	119.12146711349487	3.0083189010620117
3	79.99137306213379	pulse	1	t		134.0	120.71323204040527	
3	81.4079270362854	stim	2		2424.0	134.0	122.12978601455688	20.19991397857666
3	81.5914900302887	pulse	2	t		134.0	122.31334900856018	
3	82.791433095932	response	2	b		134.0	123.51329207420349	
3	83.19135212898254	pulse	2	t		134.0	123.91321110725403	
3	84.79143810272217	pulse	2	t		134.0	125.51329708099365	
3	86.39141607284546	pulse	2	t		134.0	127.11327505111694	
3	87.991455078125	pulse	2	t		134.0	128.71331405639648	
3	89.43296003341675	response	2	b		134.0	130.15481901168823	
3	89.59128713607788	pulse	2	t		134.0	130.31314611434937	
3	91.1914119720459	pulse	2	t		134.0	131.91327095031738	
3	92.79136610031128	pulse	2	t		134.0	133.51322507858276	
3	93.02466297149658	response	2	b		134.0	133.74652194976807	
3	94.39138913154602	pulse	2	t		134.0	135.1132481098175	
3	95.99129796028137	pulse	2	t		134.0	136.71315693855286	
3	97.59134697914124	pulse	2	t		134.0	138.31320595741272	
3	98.59127402305603	response	2	b		134.0	139.31313300132751	
3	99.19120502471924	pulse	2	t		134.0	139.91306400299072	
3	100.79131412506104	pulse	2	t		134.0	141.51317310333252	
4	101.60784101486206	stim	0		95.0	134.0	142.32969999313354	0.7916700839996338
4	102.39126801490784	pulse	0	t		134.0	143.11312699317932	
4	102.3995110988617	stim	1		361.0	134.0	143.12137007713318	3.0082578659057617
4	102.40750408172607	response	1	b		134.0	143.12936305999756	
4	103.991219997406	pulse	1	t		134.0	144.7130789756775	
4	105.40776896476746	stim	2		1848.0	134.0	146.12962794303894	15.400053024291992
4	105.59136509895325	pulse	2	t		134.0	146.31322407722473	
4	107.19128012657166	pulse	2	t		134.0	147.91313910484314	
4	107.82452392578125	response	2	b		134.0	148.54638290405273	
4	108.7913269996643	pulse	2	t		134.0	149.5131859779358	
4	110.39121198654175	pulse	2	t		134.0	151.11307096481323	
4	111.99127697944641	pulse	2	t		134.0	152.7131359577179	
4	112.88285493850708	response	2	b		134.0	153.60471391677856	
4	113.59118103981018	pulse	2	t		134.0	154.31304001808167	
4	115.19127297401428	pulse	2	t		134.0	155.91313195228577	
4	116.79117512702942	pulse	2	t		134.0	157.5130341053009	
4	118.1161630153656	response	2	b		134.0	158.83802199363708	
4	118.39120697975159	pulse	2	t		134.0	159.11306595802307	
4	119.99124503135681	pulse	2	t		134.0	160.7131040096283	
5	120.80782198905945	stim	0		95.0	134.0	161.52968096733093	0.7915880680084229
5	121.59122109413147	pulse	0	t		134.0	162.31308007240295	
5	121.59941005706787	stim	1		361.0	134.0	162.32126903533936	3.0082690715789795
5	121.9577751159668	response	1	b		134.0	162.67963409423828	
5	123.1911211013794	pulse	1	t		134.0	163.91298007965088	
5	124.60767912864685	stim	2		1848.0	134.0	165.32953810691833	15.40000581741333
5	124.79119110107422	pulse	2	t		134.0	165.5130500793457	
5	126.39117193222046	pulse	2	t		134.0	167.11303091049194	
5	127.99120712280273	pulse	2	t		134.0	168.71306610107422	
5	128.6412169933319	response	2	b		134.0	169.3630759716034	
5	129.5911729335785	pulse	2	t		134.0	170.31303191184998	
5	131.19117212295532	pulse	2	t		134.0	171.9130311012268	
5	132.79113698005676	pulse	2	t		134.0	173.51299595832825	
5	133.16608214378357	response	2	b		134.0	173.88794112205505	
5	134.39124202728271	pulse	2	t		134.0	175.1131010055542	
5	135.99111199378967	pulse	2	t		134.0	176.71297097206116	
5	137.55780792236328	response	2	b		134.0	178.27966690063477	
5	137.5912971496582	pulse	2	t		134.0	178.3131561279297	
5	139.1911129951477	pulse	2	t		134.0	179.9129719734192	
6	140.00768494606018	stim	0		95.0	134.0	180.72954392433167	0.7916650772094727
6	140.7911901473999	pulse	0	t		134.0	181.5130491256714	
6	140.79935002326965	stim	1		361.0	134.0	181.52120900154114	3.0082809925079346
6	142.3910369873047	pulse	1	t		134.0	183.11289596557617	
6	142.99101209640503	response	1	b		134.0	183.7128710746765	
6	143.8076310157776	stim	2		2040.0	134.0	184.52948999404907	16.999979972839355
6	143.99111104011536	pulse	2	t		134.0	184.71297001838684	
6	145.5910370349884	pulse	2	t		134.0	186.3128960132599	
6	147.19108510017395	pulse	2	t		134.0	187.91294407844543	
6	148.5493950843811	response	2	b		134.0	189.2712540626526	
6	148.79107904434204	pulse	2	t		134.0	189.51293802261353	
6	150.39112210273743	pulse	2	t		134.0	191.1129810810089	
6	151.99105310440063	pulse	2	t		134.0	192.71291208267212	
6	153.59102511405945	pulse	2	t		134.0	194.31288409233093	
6	154.3411569595337	response	2	b		134.0	195.06301593780518	
6	155.19104099273682	pulse	2	t		134.0	195.9128999710083	
6	156.79116010665894	pulse	2	t		134.0	197.51301908493042	
6	158.1410460472107	response	2	b		134.0	198.86290502548218	
6	158.39101195335388	pulse	2	t		134.0	199.11287093162537	
6	159.99109506607056	pulse	2	t		134.0	200.71295404434204	
7	160.80761098861694	stim	0		95.0	134.0	201.52946996688843	0.7916460037231445
7	161.59108710289001	pulse	0	t		134.0	202.3129460811615	
7	161.5992569923401	stim	1		361.0	134.0	202.32111597061157	3.008336067199707
7	162.79092693328857	response	1	b		134.0	203.51278591156006	
7	163.19096302986145	pulse	1	t		134.0	203.91282200813293	
7	164.6075930595398	stim	2		2424.0	134.0	205.32945203781128	20.199892044067383
7	164.7910439968109	pulse	2	t		134.0	205.5129029750824	
7	166.39104509353638	pulse	2	t		134.0	207.11290407180786	
7	167.99105095863342	pulse	2	t		134.0	208.7129099369049	
7	169.43262100219727	response	2	b		134.0	210.15447998046875	
7	169.59088397026062	pulse	2	t		134.0	210.3127429485321	
7	171.19091701507568	pulse	2	t		134.0	211.91277599334717	
7	172.79089403152466	pulse	2	t		134.0	213.51275300979614	
7	173.9160029888153	response	2	b		134.0	214.6378619670868	
7	174.39090609550476	pulse	2	t		134.0	215.11276507377625	
7	175.9908471107483	pulse	2	t		134.0	216.71270608901978	
7	177.5909459590912	pulse	2	t		134.0	218.31280493736267	
7	178.87423992156982	response	2	b		134.0	219.5960988998413	
7	179.19092202186584	pulse	2	t		134.0	219.91278100013733	
7	180.7909219264984	pulse	2	t		134.0	221.5127809047699	
7	182.39090704917908	pulse	2	t		134.0	223.11276602745056	
7	183.99086713790894	pulse	2	t		134.0	224.71272611618042	
7	184.07419800758362	response	2	b		134.0	224.7960569858551	
8	184.80748510360718	stim	0		95.0	134.0	225.52934408187866	0.791672945022583
8	185.59090399742126	pulse	0	t		134.0	226.31276297569275	
8	185.59915804862976	stim	1		361.0	134.0	226.32101702690125	3.0082719326019287
8	187.19093298912048	pulse	1	t		134.0	227.91279196739197	
8	188.6074299812317	stim	2		2232.0	134.0	229.32928895950317	18.599918127059937
8	188.79087615013123	pulse	2	t		134.0	229.5127351284027	
8	188.89090514183044	response	2	b		134.0	229.61276412010193	
8	190.39089393615723	pulse	2	t		134.0	231.1127529144287	
8	191.99081206321716	pulse	2	t		134.0	232.71267104148865	
8	193.46582412719727	response	2	b		134.0	234.18768310546875	
8	193.59084105491638	pulse	2	t		134.0	234.31270003318787	
8	195.19083213806152	pulse	2	t		134.0	235.912691116333	
8	196.7908489704132	pulse	2	t		134.0	237.5127079486847	
8	198.39084792137146	pulse	2	t		134.0	239.11270689964294	
8	199.24089097976685	response	2	b		134.0	239.96274995803833	
8	199.99084210395813	pulse	2	t		134.0	240.71270108222961	
8	201.59077501296997	pulse	2	t		134.0	242.31263399124146	
8	203.1908140182495	pulse	2	t		134.0	243.912672996521	
8	203.51572799682617	response	2	b		134.0	244.23758697509766	
8	204.7907099723816	pulse	2	t		134.0	245.51256895065308	
8	206.39074110984802	pulse	2	t		134.0	247.1126000881195	
9	207.20734810829163	stim	0		95.0	134.0	247.9292070865631	0.7916929721832275
9	207.9907820224762	pulse	0	t		134.0	248.71264100074768	
9	207.99904108047485	stim	1		361.0	134.0	248.72090005874634	3.008333921432495
9	208.10737299919128	response	1	b		134.0	248.82923197746277	
9	209.59068298339844	pulse	1	t		134.0	250.31254196166992	
9	211.00737500190735	stim	2		1656.0	134.0	251.72923398017883	77.00789093971252
9	211.1908700466156	pulse	2	t		134.0	251.91272902488708	
9	212.7907359600067	pulse	2	t		134.0	253.5125949382782	
9	213.66602206230164	response	2	b		134.0	254.38788104057312	
9	214.3909821510315	pulse	2	t		134.0	255.11284112930298	
9	215.9907100200653	pulse	2	t		134.0	256.7125689983368	
9	217.590744972229	pulse	2	t		134.0	258.3126039505005	
9	219.1906599998474	pulse	2	t		134.0	259.9125189781189	
9	219.63237404823303	response	2	b		134.0	260.3542330265045	
9	220.7907109260559	pulse	2	t		134.0	261.5125699043274	
9	222.39069509506226	pulse	2	t		134.0	263.11255407333374	
9	223.74902606010437	response	2	b		134.0	264.47088503837585	
9	223.9906940460205	pulse	2	t		134.0	264.712553024292	
