trial_nr	onset	event_type	phase	response	nr_frames	onset_abs	duration
0	0.14155101776123047	stim	0		119	69.47931814193726	0.9913527965545654
0	1.132903814315796	stim	1		63	70.47067093849182	0.5246779918670654
0	1.6575818061828613	stim	2		16	70.99534893035889	0.13341712951660156
0	1.790998935699463	stim	3		60	71.12876605987549	0.5001940727233887
0	2.2911930084228516	stim	4		81	71.62896013259888	0.8936970233917236
0	2.9498958587646484	response	4	space		72.28766298294067	
0	3.184890031814575	stim	5		60	72.5226571559906	0.497999906539917
1	3.682889938354492	stim	0		120	73.02065706253052	0.9999840259552002
1	4.682873964309692	stim	1		66	74.02064108848572	0.549752950668335
1	5.232626914978027	stim	2		512	74.57039403915405	4.26671290397644
1	9.499339818954468	stim	3		60	78.8371069431305	0.5001950263977051
1	9.999534845352173	stim	4		66	79.3373019695282	2.968647003173828
1	10.532989025115967	response	4	space		79.87075614929199	
1	12.968181848526001	stim	5		60	82.30594897270203	0.4979841709136963
2	13.466166019439697	stim	0		120	82.80393314361572	1.0000128746032715
2	14.466178894042969	stim	1		57	83.803946018219	0.47466611862182617
2	14.940845012664795	stim	2		32	84.27861213684082	0.26677584648132324
2	15.207620859146118	stim	3		60	84.54538798332214	0.5001721382141113
2	15.70779299736023	stim	4		56	85.04556012153625	0.9104008674621582
2	16.15788984298706	response	4	space		85.49565696716309	
2	16.618193864822388	stim	5		60	85.95596098899841	0.4979419708251953
3	17.116135835647583	stim	0		120	86.45390295982361	0.9999990463256836
3	18.116134881973267	stim	1		54	87.45390200614929	0.4497230052947998
3	18.565857887268066	stim	2		256	87.90362501144409	2.133449077606201
3	20.699306964874268	stim	3		60	90.0370740890503	0.5001540184020996
3	21.199460983276367	stim	4		55	90.53722810745239	2.0853428840637207
3	21.64124083518982	response	4	space		90.97900795936584	
3	23.284803867340088	stim	5		60	92.62257099151611	0.4979989528656006
4	23.78280282020569	stim	0		120	93.12056994438171	0.9999949932098389
4	24.782797813415527	stim	1		58	94.12056493759155	0.48305201530456543
4	25.265849828720093	stim	2		16	94.60361695289612	0.13338804244995117
4	25.399237871170044	stim	3		60	94.73700499534607	0.5001890659332275
4	25.89942693710327	stim	4		66	95.2371940612793	1.343695878982544
4	26.432868003845215	response	4	space		95.77063512802124	
4	27.243122816085815	stim	5		60	96.58088994026184	0.49788403511047363
5	27.74100685119629	stim	0		120	97.07877397537231	1.000020980834961
5	28.74102783203125	stim	1		59	98.07879495620728	0.4914121627807617
5	29.23243999481201	stim	2		16	98.57020711898804	0.13343596458435059
5	29.365875959396362	stim	3		60	98.70364308357239	0.5001800060272217
5	29.866055965423584	stim	4		78	99.20382308959961	1.3520009517669678
5	30.499495029449463	response	4	space		99.83726215362549	
5	31.21805691719055	stim	5		60	100.55582404136658	0.4979979991912842
6	31.716054916381836	stim	0		120	101.05382204055786	1.0000090599060059
6	32.71606397628784	stim	1		64	102.05383110046387	0.5330400466918945
6	33.249104022979736	stim	2		512	102.58687114715576	4.266748905181885
6	37.51585292816162	stim	3		60	106.85362005233765	0.5002450942993164
6	38.01609802246094	stim	4		64	107.35386514663696	3.6685609817504883
6	38.532856941223145	response	4	space		107.87062406539917	
6	41.684659004211426	stim	5		60	111.02242612838745	0.49802684783935547
7	42.18268585205078	stim	0		120	111.5204529762268	0.9999561309814453
7	43.18264198303223	stim	1		57	112.52040910720825	0.47471094131469727
7	43.657352924346924	stim	2		128	112.99512004852295	1.0667788982391357
7	44.72413182258606	stim	3		60	114.06189894676208	0.5001070499420166
7	45.224238872528076	stim	4		87	114.5620059967041	2.8603620529174805
7	45.932766914367676	response	4	space		115.2705340385437	
7	48.08460092544556	stim	5		60	117.42236804962158	0.49800801277160645
8	48.58260893821716	stim	0		120	117.92037606239319	1.00006103515625
8	49.58266997337341	stim	1		77	118.92043709754944	0.6413140296936035
8	50.22398400306702	stim	2		64	119.56175112724304	0.5338008403778076
8	50.757784843444824	stim	3		60	120.09555196762085	0.4998171329498291
8	51.25760197639465	stim	4		73	120.59536910057068	1.5270118713378906
8	51.84939789772034	response	4	space		121.18716502189636	
8	52.784613847732544	stim	5		60	122.12238097190857	0.497974157333374
9	53.28258800506592	stim	0		120	122.62035512924194	1.0000228881835938
9	54.28261089324951	stim	1		55	123.62037801742554	0.45799803733825684
9	54.74060893058777	stim	2		128	124.0783760547638	1.0667359828948975
9	55.807344913482666	stim	3		60	125.14511203765869	0.5002028942108154
9	56.30754780769348	stim	4		103	125.6453149318695	2.2667770385742188
9	57.14934682846069	response	4	space		126.48711395263672	
9	58.5743248462677	stim	5		60	127.91209197044373	0.4999210834503174
10	59.07424592971802	stim	0		120	128.41201305389404	0.9999558925628662
10	60.074201822280884	stim	1		74	129.4119689464569	0.616347074508667
10	60.69054889678955	stim	2		64	130.02831602096558	0.5334370136260986
10	61.22398591041565	stim	3		60	130.56175303459167	0.5002059936523438
10	61.72419190406799	stim	4		54	131.06195902824402	0.7769970893859863
10	62.157634019851685	response	4	space		131.4954011440277	
10	62.50118899345398	stim	5		60	131.83895611763	0.4980299472808838
11	62.99921894073486	stim	0		120	132.3369860649109	0.9999790191650391
11	63.9991979598999	stim	1		62	133.33696508407593	0.5163719654083252
11	64.51556992530823	stim	2		512	133.85333704948425	4.26673698425293
11	68.78230690956116	stim	3		60	138.12007403373718	0.500175952911377
11	69.28248286247253	stim	4		60	138.62024998664856	2.693596124649048
11	69.75780081748962	response	4	space		139.09556794166565	
11	71.97607898712158	stim	5		60	141.3138461112976	0.49805402755737305
12	72.47413301467896	stim	0		120	141.81190013885498	0.9999639987945557
12	73.47409701347351	stim	1		68	142.81186413764954	0.566403865814209
12	74.04050087928772	stim	2		16	143.37826800346375	0.13344407081604004
12	74.17394495010376	stim	3		60	143.51171207427979	0.5002260208129883
12	74.67417097091675	stim	4		58	144.01193809509277	0.6852669715881348
12	75.1408839225769	response	4	space		144.47865104675293	
12	75.35943794250488	stim	5		60	144.6972050666809	0.49799108505249023
13	75.85742902755737	stim	0		120	145.1951961517334	1.0000059604644775
13	76.85743498802185	stim	1		62	146.19520211219788	0.5163569450378418
13	77.37379193305969	stim	2		32	146.71155905723572	0.26712608337402344
13	77.64091801643372	stim	3		60	146.97868514060974	0.4998199939727783
13	78.1407380104065	stim	4		69	147.47850513458252	0.9853689670562744
13	78.69926500320435	response	4	space		148.03703212738037	
13	79.12610697746277	stim	5		60	148.4638741016388	0.4979560375213623
14	79.62406301498413	stim	0		120	148.96183013916016	1.0000109672546387
14	80.62407398223877	stim	1		62	149.9618411064148	0.5163249969482422
14	81.14039897918701	stim	2		64	150.47816610336304	0.5334789752960205
14	81.67387795448303	stim	3		60	151.01164507865906	0.5001919269561768
14	82.17406988143921	stim	4		79	151.51183700561523	1.3686881065368652
14	82.81591200828552	response	4	space		152.15367913246155	
14	83.54275798797607	stim	5		60	152.8805251121521	0.4979839324951172
15	84.04074192047119	stim	0		120	153.37850904464722	0.9999608993530273
15	85.04070281982422	stim	1		55	154.37846994400024	0.4580800533294678
15	85.49878287315369	stim	2		256	154.8365499973297	2.1333749294281006
15	87.63215780258179	stim	3		60	156.9699249267578	0.5001981258392334
15	88.13235592842102	stim	4		66	157.47012305259705	2.735365867614746
15	88.66581988334656	response	4	space		158.00358700752258	
15	90.86772179603577	stim	5		60	160.2054889202118	0.4980471134185791
16	91.36576890945435	stim	0		120	160.70353603363037	0.9999380111694336
16	92.36570692062378	stim	1		71	161.7034740447998	0.5913228988647461
16	92.95702981948853	stim	2		16	162.29479694366455	0.13365507125854492
16	93.09068489074707	stim	3		60	162.4284520149231	0.5000500679016113
16	93.59073495864868	stim	4		96	162.9285020828247	1.3436329364776611
16	94.37415194511414	response	4	space		163.71191906929016	
16	94.93436789512634	stim	5		60	164.27213501930237	0.4979579448699951
17	95.43232583999634	stim	0		120	164.77009296417236	1.0000011920928955
17	96.43232703208923	stim	1		68	165.77009415626526	0.5663468837738037
17	96.99867391586304	stim	2		32	166.33644104003906	0.2667860984802246
17	97.26546001434326	stim	3		60	166.6032271385193	0.5001599788665771
17	97.76561999320984	stim	4		78	167.10338711738586	1.4936819076538086
17	98.39907193183899	response	4	space		167.73683905601501	
17	99.25930190086365	stim	5		60	168.59706902503967	0.49796009063720703
18	99.75726199150085	stim	0		120	169.09502911567688	1.0000250339508057
18	100.75728702545166	stim	1		71	170.09505414962769	0.5914139747619629
18	101.34870100021362	stim	2		256	170.68646812438965	2.133370876312256
18	103.48207187652588	stim	3		60	172.8198390007019	0.500190019607544
18	103.98226189613342	stim	4		48	173.32002902030945	2.7520360946655273
18	104.36576294898987	response	4	space		173.7035300731659	
18	106.73429799079895	stim	5		60	176.07206511497498	0.49794888496398926
19	107.23224687576294	stim	0		120	176.57001399993896	1.0000560283660889
19	108.23230290412903	stim	1		65	177.57007002830505	0.5412940979003906
19	108.77359700202942	stim	2		256	178.11136412620544	2.1333909034729004
19	110.90698790550232	stim	3		60	180.24475502967834	0.5002200603485107
19	111.40720796585083	stim	4		80	180.74497509002686	3.118595838546753
19	112.05732798576355	response	4	space		181.39509510993958	
19	114.52580380439758	stim	5		60	183.8635709285736	0.49801111221313477
20	115.02381491661072	stim	0		120	184.36158204078674	1.0000300407409668
20	116.02384495735168	stim	1		63	185.3616120815277	0.5247089862823486
20	116.54855394363403	stim	2		64	185.88632106781006	0.5333878993988037
20	117.08194184303284	stim	3		60	186.41970896720886	0.5001721382141113
20	117.58211398124695	stim	4		77	186.91988110542297	1.6936800479888916
20	118.20722579956055	response	4	space		187.54499292373657	
20	119.27579402923584	stim	5		60	188.61356115341187	0.4980318546295166
21	119.77382588386536	stim	0		120	189.11159300804138	0.9999699592590332
21	120.77379584312439	stim	1		64	190.11156296730042	0.533135175704956
21	121.30693101882935	stim	2		16	190.64469814300537	0.1333298683166504
21	121.440260887146	stim	3		60	190.77802801132202	0.5002410411834717
21	121.94050192832947	stim	4		88	191.2782690525055	1.8603758811950684
21	122.65727996826172	response	4	space		191.99504709243774	
21	123.80087780952454	stim	5		60	193.13864493370056	0.49793314933776855
22	124.2988109588623	stim	0		120	193.63657808303833	0.9999909400939941
22	125.2988018989563	stim	1		61	194.63656902313232	0.5080089569091797
22	125.80681085586548	stim	2		128	195.1445779800415	1.0667719841003418
22	126.87358283996582	stim	3		60	196.21134996414185	0.5001671314239502
22	127.37374997138977	stim	4		82	196.7115170955658	2.127004861831665
22	128.04049682617188	response	4	space		197.3782639503479	
22	129.50075483322144	stim	5		60	198.83852195739746	0.4980189800262451
23	129.99877381324768	stim	0		120	199.3365409374237	0.9999752044677734
23	130.99874901771545	stim	1		62	200.33651614189148	0.5163908004760742
23	131.51513981819153	stim	2		512	200.85290694236755	4.266717195510864
23	135.7818570137024	stim	3		60	205.11962413787842	0.500194787979126
23	136.28205180168152	stim	4		113	205.61981892585754	4.360321998596191
23	137.2071979045868	response	4	space		206.54496502876282	
23	140.6423738002777	stim	5		60	209.98014092445374	0.49797916412353516
24	141.14035296440125	stim	0		120	210.47812008857727	0.9999420642852783
24	142.14029502868652	stim	1		68	211.47806215286255	0.5663778781890869
24	142.7066729068756	stim	2		32	212.04444003105164	0.2667660713195801
24	142.9734389781952	stim	3		60	212.31120610237122	0.5002279281616211
24	143.4736669063568	stim	4		58	212.81143403053284	0.9520010948181152
24	143.94042992591858	response	4	space		213.2781970500946	
24	144.42566800117493	stim	5		60	213.76343512535095	0.4979519844055176
25	144.92361998558044	stim	0		120	214.26138710975647	1.0000369548797607
25	145.9236569404602	stim	1		78	215.26142406463623	0.6496410369873047
25	146.5732979774475	stim	2		512	215.91106510162354	4.266787052154541
25	150.84008502960205	stim	3		60	220.17785215377808	0.5001537799835205
25	151.34023880958557	stim	4		71	220.6780059337616	4.42703914642334
25	151.9153769016266	response	4	space		221.2531440258026	
25	155.7672779560089	stim	5		60	225.10504508018494	0.49797487258911133
26	156.26525282859802	stim	0		120	225.60301995277405	0.9999849796295166
26	157.26523780822754	stim	1		54	226.60300493240356	0.44973111152648926
26	157.71496891975403	stim	2		32	227.05273604393005	0.2667520046234131
26	157.98172092437744	stim	3		60	227.31948804855347	0.5001730918884277
26	158.48189401626587	stim	4		54	227.8196611404419	1.1519739627838135
26	158.91529488563538	response	4	space		228.2530620098114	
26	159.63386797904968	stim	5		60	228.9716351032257	0.49800992012023926
27	160.13187789916992	stim	0		120	229.46964502334595	0.9999969005584717
27	161.1318747997284	stim	1		68	230.46964192390442	0.5663959980010986
27	161.6982707977295	stim	2		128	231.03603792190552	1.0667691230773926
27	162.76503992080688	stim	3		60	232.1028070449829	0.5001709461212158
27	163.2652108669281	stim	4		66	232.60297799110413	1.7519819736480713
27	163.7985908985138	response	4	space		233.13635802268982	
27	165.01719284057617	stim	5		60	234.3549599647522	0.4979841709136963
28	165.51517701148987	stim	0		120	234.8529441356659	0.9999918937683105
28	166.51516890525818	stim	1		66	235.8529360294342	0.5497260093688965
28	167.06489491462708	stim	2		16	236.4026620388031	0.13341188430786133
28	167.19830679893494	stim	3		60	236.53607392311096	0.500190019607544
28	167.69849681854248	stim	4		58	237.0362639427185	0.693648099899292
28	168.16524600982666	response	4	space		237.50301313400269	
28	168.39214491844177	stim	5		60	237.7299120426178	0.49797701835632324
29	168.8901219367981	stim	0		120	238.22788906097412	1.0000300407409668
29	169.89015197753906	stim	1		57	239.2279191017151	0.47473788261413574
29	170.3648898601532	stim	2		64	239.70265698432922	0.5333881378173828
29	170.89827799797058	stim	3		60	240.2360451221466	0.5001609325408936
29	171.39843893051147	stim	4		56	240.7362060546875	0.902008056640625
29	171.84855699539185	response	4	space		241.18632411956787	
29	172.3004469871521	stim	5		60	241.63821411132812	0.4980340003967285
30	172.79848098754883	stim	0		120	242.13624811172485	0.9999768733978271
30	173.79845786094666	stim	1		59	243.13622498512268	0.4913499355316162
30	174.28980779647827	stim	2		64	243.6275749206543	0.5334041118621826
30	174.82321190834045	stim	3		60	244.16097903251648	0.5002279281616211
30	175.32343983650208	stim	4		54	244.6612069606781	0.6936740875244141
30	175.7568428516388	response	4	space		245.09460997581482	
30	176.0171139240265	stim	5		60	245.35488104820251	0.4980030059814453
31	176.51511693000793	stim	0		120	245.85288405418396	0.9999709129333496
31	177.51508784294128	stim	1		78	246.8528549671173	0.649744987487793
31	178.16483283042908	stim	2		64	247.5025999546051	0.53336501121521
31	178.6981978416443	stim	3		60	248.0359649658203	0.5001921653747559
31	179.19839000701904	stim	4		58	248.53615713119507	0.8270478248596191
31	179.6652228832245	response	4	space		249.0029900074005	
31	180.02543783187866	stim	5		60	249.3632049560547	0.4979209899902344
32	180.5233588218689	stim	0		120	249.86112594604492	1.0000391006469727
32	181.52339792251587	stim	1		62	250.8611650466919	0.5163381099700928
32	182.03973603248596	stim	2		32	251.377503156662	0.26677489280700684
32	182.30651092529297	stim	3		60	251.644278049469	0.5001780986785889
32	182.80668902397156	stim	4		69	252.14445614814758	0.8104047775268555
32	183.36519289016724	response	4	space		252.70296001434326	
32	183.6170938014984	stim	5		60	252.95486092567444	0.4979560375213623
33	184.11504983901978	stim	0		120	253.4528169631958	0.9999840259552002
33	185.11503386497498	stim	1		59	254.452800989151	0.49135494232177734
33	185.60638880729675	stim	2		128	254.94415593147278	1.0667290687561035
33	186.67311787605286	stim	3		60	256.0108850002289	0.5002131462097168
33	187.17333102226257	stim	4		52	256.5110981464386	1.4853358268737793
33	187.59016299247742	response	4	space		256.92793011665344	
33	188.65866684913635	stim	5		60	257.9964339733124	0.4980480670928955
34	189.15671491622925	stim	0		120	258.4944820404053	1.000014066696167
34	190.15672898292542	stim	1		77	259.49449610710144	0.6413729190826416
34	190.79810190200806	stim	2		32	260.1358690261841	0.26670193672180176
34	191.06480383872986	stim	3		60	260.4025709629059	0.5002110004425049
34	191.56501483917236	stim	4		55	260.9027819633484	0.9436891078948975
34	192.00676202774048	response	4	space		261.3445291519165	
34	192.50870394706726	stim	5		60	261.8464710712433	0.49794602394104004
35	193.0066499710083	stim	0		120	262.3444170951843	0.9999890327453613
35	194.00663900375366	stim	1		71	263.3444061279297	0.5914318561553955
35	194.59807085990906	stim	2		64	263.9358379840851	0.5333850383758545
35	195.1314558982849	stim	3		60	264.46922302246094	0.5001718997955322
35	195.63162779808044	stim	4		45	264.96939492225647	0.943688154220581
35	195.99009585380554	response	4	space		265.32786297798157	
35	196.57531595230103	stim	5		60	265.91308307647705	0.49797487258911133
36	197.07329082489014	stim	0		120	266.41105794906616	0.9999701976776123
36	198.07326102256775	stim	1		66	267.4110281467438	0.5497109889984131
36	198.62297201156616	stim	2		64	267.9607391357422	0.5334060192108154
36	199.15637803077698	stim	3		60	268.494145154953	0.5002198219299316
36	199.6565978527069	stim	4		80	268.99436497688293	1.4603381156921387
36	200.3066759109497	response	4	space		269.64444303512573	
36	201.11693596839905	stim	5		60	270.4547030925751	0.49802684783935547
37	201.6149628162384	stim	0		120	270.95272994041443	0.9999821186065674
37	202.61494493484497	stim	1		69	271.952712059021	0.5746989250183105
37	203.18964385986328	stim	2		256	272.5274109840393	2.1333799362182617
37	205.32302379608154	stim	3		60	274.66079092025757	0.5001721382141113
37	205.82319593429565	stim	4		55	275.1609630584717	1.91035795211792
37	206.2650249004364	response	4	space		275.6027920246124	
37	207.73355388641357	stim	5		60	277.0713210105896	0.4980180263519287
38	208.2315719127655	stim	0		120	277.5693390369415	0.9999790191650391
38	209.23155093193054	stim	1		59	278.56931805610657	0.49140095710754395
38	209.7229518890381	stim	2		512	279.0607190132141	4.266658067703247
38	213.98960995674133	stim	3		60	283.32737708091736	0.5002679824829102
38	214.48987793922424	stim	4		103	283.82764506340027	4.9102699756622314
38	215.33159279823303	response	4	space		284.66935992240906	
38	219.40014791488647	stim	5		60	288.7379150390625	0.49799108505249023
39	219.89813899993896	stim	0		120	289.235906124115	0.9999878406524658
39	220.89812684059143	stim	1		57	290.23589396476746	0.4746840000152588
39	221.3728108406067	stim	2		16	290.7105779647827	0.13341903686523438
39	221.50622987747192	stim	3		60	290.84399700164795	0.5002031326293945
39	222.00643301010132	stim	4		52	291.34420013427734	0.7853419780731201
39	222.4231538772583	response	4	space		291.7609210014343	
39	222.79177498817444	stim	5		60	292.12954211235046	0.4979879856109619
40	223.2897629737854	stim	0		120	292.6275300979614	0.9999959468841553
40	224.28975892066956	stim	1		68	293.6275260448456	0.5664150714874268
40	224.85617399215698	stim	2		32	294.193941116333	0.2666969299316406
40	225.12287092208862	stim	3		60	294.46063804626465	0.5001919269561768
40	225.6230628490448	stim	4		46	294.9608299732208	0.7186789512634277
40	225.98981499671936	response	4	space		295.3275821208954	
40	226.34174180030823	stim	5		60	295.67950892448425	0.49804019927978516
41	226.839781999588	stim	0		120	296.17754912376404	0.9999179840087891
41	227.8396999835968	stim	1		65	297.1774671077728	0.5414628982543945
41	228.3811628818512	stim	2		128	297.7189300060272	1.0666999816894531
41	229.44786286354065	stim	3		60	298.7856299877167	0.5002319812774658
41	229.94809484481812	stim	4		58	299.28586196899414	1.1353001594543457
41	230.41487884521484	response	4	space		299.75264596939087	
41	231.08339500427246	stim	5		60	300.4211621284485	0.49799394607543945
42	231.5813889503479	stim	0		120	300.9191560745239	1.000040054321289
42	232.5814290046692	stim	1		65	301.9191961288452	0.5415549278259277
42	233.12298393249512	stim	2		16	302.46075105667114	0.1332230567932129
42	233.25620698928833	stim	3		60	302.59397411346436	0.5001649856567383
42	233.75637197494507	stim	4		53	303.0941390991211	0.5833978652954102
42	234.18149280548096	response	4	space		303.519259929657	
42	234.33976984024048	stim	5		60	303.6775369644165	0.49991297721862793
43	234.8396828174591	stim	0		120	304.17744994163513	1.0000181198120117
43	235.83970093727112	stim	1		64	305.17746806144714	0.5330319404602051
43	236.37273287773132	stim	2		256	305.71050000190735	2.1352860927581787
43	238.5080189704895	stim	3		60	307.8457860946655	0.498309850692749
43	239.00632882118225	stim	4		56	308.3440959453583	2.6019489765167236
43	239.45641684532166	response	4	space		308.7941839694977	
43	241.60827779769897	stim	5		60	310.946044921875	0.4980051517486572
44	242.10628294944763	stim	0		120	311.44405007362366	0.9999818801879883
44	243.10626482963562	stim	1		64	312.44403195381165	0.5330770015716553
44	243.63934183120728	stim	2		128	312.9771089553833	1.0667719841003418
44	244.70611381530762	stim	3		60	314.04388093948364	0.5001611709594727
44	245.2062749862671	stim	4		48	314.5440421104431	1.66035795211792
44	245.5897078514099	response	4	space		314.92747497558594	
44	246.866632938385	stim	5		60	316.20440006256104	0.4980039596557617
45	247.36463689804077	stim	0		120	316.7024040222168	0.9999830722808838
45	248.36461997032166	stim	1		68	317.7023870944977	0.5664050579071045
45	248.93102502822876	stim	2		16	318.2687921524048	0.13340091705322266
45	249.06442594528198	stim	3		60	318.402193069458	0.5002319812774658
45	249.56465792655945	stim	4		54	318.9024250507355	0.901932954788208
45	249.9980390071869	response	4	space		319.3358061313629	
45	250.46659088134766	stim	5		60	319.8043580055237	0.4980001449584961
46	250.96459102630615	stim	0		120	320.3023581504822	1.0000050067901611
46	251.9645960330963	stim	1		74	321.30236315727234	0.616386890411377
46	252.5809829235077	stim	2		128	321.9187500476837	1.0667359828948975
46	253.6477189064026	stim	3		60	322.9854860305786	0.5001890659332275
46	254.14790797233582	stim	4		47	323.48567509651184	1.3269548416137695
46	254.52297401428223	response	4	space		323.86074113845825	
46	255.47486281394958	stim	5		60	324.8126299381256	0.49802112579345703
47	255.97288393974304	stim	0		120	325.31065106391907	0.9999899864196777
47	256.9728739261627	stim	1		76	326.31064105033875	0.6330459117889404
47	257.60591983795166	stim	2		128	326.9436869621277	1.0667481422424316
47	258.6726679801941	stim	3		60	328.0104351043701	0.500208854675293
47	259.1728768348694	stim	4		48	328.5106439590454	1.5437099933624268
47	259.55630683898926	response	4	space		328.8940739631653	
47	260.7165868282318	stim	5		60	330.05435395240784	0.4979410171508789
48	261.2145278453827	stim	0		120	330.5522949695587	1.0000369548797607
48	262.21456480026245	stim	1		77	331.5523319244385	0.6412920951843262
48	262.8558568954468	stim	2		64	332.1936240196228	0.5334210395812988
48	263.3892779350281	stim	3		60	332.7270450592041	0.5002040863037109
48	263.8894820213318	stim	4		55	333.2272491455078	1.4019858837127686
48	264.33123898506165	response	4	space		333.66900610923767	
48	265.29146790504456	stim	5		60	334.6292350292206	0.4980049133300781
49	265.78947281837463	stim	0		120	335.12723994255066	1.0000231266021729
49	266.7894959449768	stim	1		77	336.12726306915283	0.6413838863372803
49	267.4308798313141	stim	2		128	336.7686469554901	1.0667340755462646
49	268.49761390686035	stim	3		60	337.8353810310364	0.5002150535583496
49	268.9978289604187	stim	4		49	338.3355960845947	1.7603259086608887
49	269.3895118236542	response	4	space		338.7272789478302	
49	270.7581548690796	stim	5		60	340.0959219932556	0.4979419708251953
50	271.2560968399048	stim	0		120	340.5938639640808	1.0000121593475342
50	272.2561089992523	stim	1		76	341.59387612342834	0.6330640316009521
50	272.88917303085327	stim	2		32	342.2269401550293	0.2667098045349121
50	273.1558828353882	stim	3		60	342.4936499595642	0.5002210140228271
50	273.656103849411	stim	4		73	342.99387097358704	1.6269919872283936
50	274.2478759288788	response	4	space		343.5856430530548	
50	275.2830958366394	stim	5		60	344.62086296081543	0.4980051517486572
51	275.78110098838806	stim	0		120	345.1188681125641	1.0000019073486328
51	276.7811028957367	stim	1		63	346.1188700199127	0.5247049331665039
51	277.3058078289032	stim	2		256	346.6435749530792	2.1333580017089844
51	279.4391658306122	stim	3		60	348.7769329547882	0.5002200603485107
51	279.9393858909607	stim	4		49	349.2771530151367	2.3020060062408447
51	280.33114290237427	response	4	space		349.6689100265503	
51	282.24139189720154	stim	5		60	351.57915902137756	0.4979679584503174
52	282.73935985565186	stim	0		120	352.0771269798279	0.9999949932098389
52	283.7393548488617	stim	1		65	353.0771219730377	0.5414421558380127
52	284.2807970046997	stim	2		256	353.61856412887573	2.1334099769592285
52	286.41420698165894	stim	3		60	355.75197410583496	0.5001468658447266
52	286.91435384750366	stim	4		54	356.2521209716797	3.143627166748047
52	287.34777188301086	response	4	space		356.6855390071869	
52	290.0579810142517	stim	5		60	359.39574813842773	0.4980788230895996
53	290.5560598373413	stim	0		120	359.89382696151733	0.9999439716339111
53	291.5560038089752	stim	1		70	360.89377093315125	0.5829720497131348
53	292.13897585868835	stim	2		512	361.4767429828644	4.266776084899902
53	296.40575194358826	stim	3		60	365.7435190677643	0.5001728534698486
53	296.9059247970581	stim	4		96	366.24369192123413	4.285266160964966
53	297.6893889904022	response	4	space		367.02715611457825	
53	301.19119095802307	stim	5		60	370.5289580821991	0.49802589416503906
54	301.6892168521881	stim	0		120	371.02698397636414	0.9999940395355225
54	302.68921089172363	stim	1		76	372.02697801589966	0.6330840587615967
54	303.32229495048523	stim	2		512	372.66006207466125	4.2667059898376465
54	307.5890009403229	stim	3		60	376.9267680644989	0.5001809597015381
54	308.0891819000244	stim	4		62	377.42694902420044	5.0103759765625
54	308.5893199443817	response	4	space		377.92708706855774	
54	313.0995578765869	stim	5		60	382.43732500076294	0.4979560375213623
55	313.5975139141083	stim	0		120	382.9352810382843	1.0000219345092773
55	314.59753584861755	stim	1		66	383.9353029727936	0.5496909618377686
55	315.1472268104553	stim	2		256	384.48499393463135	2.133568048477173
55	317.2807948589325	stim	3		60	386.6185619831085	0.5000300407409668
55	317.78082489967346	stim	4		54	387.1185920238495	1.7936499118804932
55	318.214359998703	response	4	space		387.552127122879	
55	319.57447481155396	stim	5		60	388.91224193573	0.49799013137817383
56	320.07246494293213	stim	0		120	389.41023206710815	1.0
56	321.07246494293213	stim	1		65	390.41023206710815	0.5421299934387207
56	321.61459493637085	stim	2		512	390.9523620605469	4.265964984893799
56	325.88055992126465	stim	3		60	395.2183270454407	0.5002129077911377
56	326.3807728290558	stim	4		64	395.7185399532318	3.7769460678100586
56	326.89749693870544	response	4	space		396.23526406288147	
56	330.15771889686584	stim	5		60	399.49548602104187	0.49802494049072266
57	330.65574383735657	stim	0		120	399.9935109615326	1.0000190734863281
57	331.6557629108429	stim	1		71	400.9935300350189	0.5913529396057129
57	332.2471158504486	stim	2		32	401.58488297462463	0.2667500972747803
57	332.5138659477234	stim	3		60	401.8516330718994	0.5002079010009766
57	333.01407384872437	stim	4		55	402.3518409729004	0.6852819919586182
57	333.4558148384094	response	4	space		402.79358196258545	
57	333.699355840683	stim	5		60	403.037122964859	0.4980201721191406
58	334.1973760128021	stim	0		120	403.53514313697815	0.9999909400939941
58	335.1973669528961	stim	1		54	404.53513407707214	0.44974493980407715
58	335.6471118927002	stim	2		256	404.9848790168762	2.133397102355957
58	337.78050899505615	stim	3		60	407.1182761192322	0.5001518726348877
58	338.28066086769104	stim	4		52	407.61842799186707	2.852039098739624
58	338.69742798805237	response	4	space		408.0351951122284	
58	341.13269996643066	stim	5		60	410.4704670906067	0.4979560375213623
59	341.630656003952	stim	0		120	410.96842312812805	1.0000038146972656
59	342.6306598186493	stim	1		77	411.9684269428253	0.6413052082061768
59	343.27196502685547	stim	2		512	412.6097321510315	4.266790866851807
59	347.5387558937073	stim	3		60	416.8765230178833	0.5001649856567383
59	348.038920879364	stim	4		52	417.37668800354004	3.485365152359009
59	348.45566296577454	response	4	space		417.79343008995056	
59	351.524286031723	stim	5		60	420.86205315589905	0.49796199798583984
