trial_nr	onset	event_type	phase	response	nr_frames	subject	block	signal_present	signal_orientation	signal_opacity	correct	miniblock	blinkDuringTrial	RT	trial	confidence	key	RT_   0	onset_abs	duration
0	0.013134002685546875	blockStart	0	-1	293	97	0.0	0.0	0.0	0.0	-1.0	0.0	0.0	-1.0	0.0	-1.0			5.628549814224243	4.88210916519165
0	4.895243167877197	baseline_window	1	-1	91	97	0.0	0.0	0.0	0.0	-1.0	0.0	0.0	-1.0	0.0	-1.0			10.510658979415894	1.516075849533081
0	6.411319017410278	stimulus_window	2	-1	12	97	0.0	0.0	0.0	0.0	-1.0	0.0	0.0	-1.0	0.0	-1.0			12.026734828948975	0.20008301734924316
0	6.6114020347595215	response_window	3	-1	72	97	0.0	0.0	0.0	0.0	-1.0	0.0	0.0	-1.0	0.0	-1.0			12.226817846298218	1.1996731758117676
0	7.811075210571289	feedback_window	4	-1	18	97	0.0	0.0	0.0	0.0	-1.0	0.0	0.0	-1.0	0.0	-1.0			13.426491022109985	0.3000478744506836
0	8.111123085021973	ITI_window	5	-1	38	97	0.0	0.0	0.0	0.0	-1.0	0.0	0.0	-1.0	0.0	-1.0			13.726538896560669	0.6328020095825195
1	8.743925094604492	blockStart	0	-1	0	97	0.0	0.0	0.0	0.0	-1.0	0.0	0.0	-1.0	1.0	-1.0			14.359340906143188	0.0037369728088378906
1	8.74766206741333	baseline_window	1	-1	30	97	0.0	0.0	0.0	0.0	-1.0	0.0	0.0	-1.0	1.0	-1.0			14.363077878952026	0.4963071346282959
1	9.243969202041626	stimulus_window	2	-1	12	97	0.0	0.0	0.0	0.0	-1.0	0.0	0.0	-1.0	1.0	-1.0			14.859385013580322	0.1998918056488037
1	9.44386100769043	response_window	3	-1	59	97	0.0	0.0	0.0	0.0	-1.0	0.0	0.0	-1.0	1.0	-1.0			15.059276819229126	0.9826350212097168
1	10.399785995483398	response	3	0	59						1.0			1.1558167934417725		1.0	a		16.015201807022095	
1	10.426496028900146	feedback_window	4	0	19	97	0.0	0.0	0.0	0.0	1.0	0.0	0.0		1.0	1.0		1.1558167934417725	16.041911840438843	0.3168301582336426
1	10.743326187133789	ITI_window	5	0	46	97	0.0	0.0	0.0	0.0	1.0	0.0	0.0		1.0	1.0		1.1558167934417725	16.358741998672485	0.7662739753723145
2	11.509600162506104	blockStart	0	-1	0	97	0.0	0.0	1.0	0.0	-1.0	0.0	0.0	-1.0	2.0	-1.0			17.1250159740448	0.0041730403900146484
2	11.513773202896118	baseline_window	1	-1	30	97	0.0	0.0	1.0	0.0	-1.0	0.0	0.0	-1.0	2.0	-1.0			17.129189014434814	0.495715856552124
2	12.009489059448242	stimulus_window	2	-1	12	97	0.0	0.0	1.0	0.0	-1.0	0.0	0.0	-1.0	2.0	-1.0			17.62490487098694	0.199937105178833
2	12.209426164627075	response_window	3	-1	71	97	0.0	0.0	1.0	0.0	-1.0	0.0	0.0	-1.0	2.0	-1.0			17.82484197616577	1.183048963546753
2	13.365196228027344	response	3	1	71						0.0			1.3557071685791016		1.0	l		18.98061203956604	
2	13.392475128173828	feedback_window	4	1	19	97	0.0	0.0	1.0	0.0	0.0	0.0	0.0	1.3557071685791016	2.0	1.0			19.007890939712524	0.31662988662719727
2	13.709105014801025	ITI_window	5	1	49	97	0.0	0.0	1.0	0.0	0.0	0.0	0.0	1.3557071685791016	2.0	1.0			19.32452082633972	0.8160831928253174
3	14.525188207626343	blockStart	0	-1	0	97	0.0	0.0	1.0	0.0	-1.0	0.0	0.0	-1.0	3.0	-1.0			20.14060401916504	0.0036118030548095703
3	14.528800010681152	baseline_window	1	-1	29	97	0.0	0.0	1.0	0.0	-1.0	0.0	0.0	-1.0	3.0	-1.0			20.14421582221985	0.47978711128234863
3	15.008587121963501	stimulus_window	2	-1	12	97	0.0	0.0	1.0	0.0	-1.0	0.0	0.0	-1.0	3.0	-1.0			20.624002933502197	0.1999070644378662
3	15.208494186401367	response_window	3	-1	58	97	0.0	0.0	1.0	0.0	-1.0	0.0	0.0	-1.0	3.0	-1.0			20.823909997940063	0.9660689830780029
3	16.14608120918274	response	3	1	58						0.0			1.1374940872192383		0.0	k		21.761497020721436	
3	16.17456316947937	feedback_window	4	1	19	97	0.0	0.0	1.0	0.0	0.0	0.0	0.0	1.1374940872192383	3.0	0.0			21.789978981018066	0.316925048828125
3	16.491488218307495	ITI_window	5	1	38	97	0.0	0.0	1.0	0.0	0.0	0.0	0.0	1.1374940872192383	3.0	0.0			22.10690402984619	0.6327488422393799
4	17.124237060546875	blockStart	0	-1	0	97	0.0	1.0	0.0	0.010000000000000002	-1.0	0.0	0.0	-1.0	4.0	-1.0			22.73965287208557	0.004143953323364258
4	17.12838101387024	baseline_window	1	-1	30	97	0.0	1.0	0.0	0.010000000000000002	-1.0	0.0	0.0	-1.0	4.0	-1.0			22.743796825408936	0.4960751533508301
4	17.62445616722107	stimulus_window	2	-1	12	97	0.0	1.0	0.0	0.010000000000000002	-1.0	0.0	0.0	-1.0	4.0	-1.0			23.239871978759766	0.19986796379089355
4	17.824324131011963	response_window	3	-1	53	97	0.0	1.0	0.0	0.010000000000000002	-1.0	0.0	0.0	-1.0	4.0	-1.0			23.43973994255066	0.8831028938293457
4	18.680110216140747	response	3	1	53						1.0			1.0556540489196777		0.0	k		24.295526027679443	
4	18.70742702484131	feedback_window	4	1	19	97	0.0	1.0	0.0	0.010000000000000002	1.0	0.0	0.0	1.0556540489196777	4.0	0.0			24.322842836380005	0.316601037979126
4	19.024028062820435	ITI_window	5	1	38	97	0.0	1.0	0.0	0.010000000000000002	1.0	0.0	0.0	1.0556540489196777	4.0	0.0			24.63944387435913	0.6327869892120361
5	19.65681505203247	blockStart	0	-1	0	97	0.0	0.0	1.0	0.0	-1.0	0.0	0.0	-1.0	5.0	-1.0			25.272230863571167	0.0039441585540771484
5	19.660759210586548	baseline_window	1	-1	30	97	0.0	0.0	1.0	0.0	-1.0	0.0	0.0	-1.0	5.0	-1.0			25.276175022125244	0.4960949420928955
5	20.156854152679443	stimulus_window	2	-1	12	97	0.0	0.0	1.0	0.0	-1.0	0.0	0.0	-1.0	5.0	-1.0			25.77226996421814	0.20013904571533203
5	20.356993198394775	response_window	3	-1	61	97	0.0	0.0	1.0	0.0	-1.0	0.0	0.0	-1.0	5.0	-1.0			25.97240900993347	1.0160958766937256
5	21.345291137695312	response	3	0	61						1.0			1.1884369850158691		1.0	a		26.96070694923401	
5	21.3730890750885	feedback_window	4	0	19	97	0.0	0.0	1.0	0.0	1.0	0.0	0.0		5.0	1.0		1.1884369850158691	26.988504886627197	0.31644296646118164
5	21.689532041549683	ITI_window	5	0	51	97	0.0	0.0	1.0	0.0	1.0	0.0	0.0		5.0	1.0		1.1884369850158691	27.30494785308838	0.8499109745025635
6	22.539443016052246	blockStart	0	-1	0	97	0.0	1.0	1.0	0.015000000000000003	-1.0	0.0	0.0	-1.0	6.0	-1.0			28.154858827590942	0.0043261051177978516
6	22.543769121170044	baseline_window	1	-1	30	97	0.0	1.0	1.0	0.015000000000000003	-1.0	0.0	0.0	-1.0	6.0	-1.0			28.15918493270874	0.49550795555114746
6	23.03927707672119	stimulus_window	2	-1	12	97	0.0	1.0	1.0	0.015000000000000003	-1.0	0.0	0.0	-1.0	6.0	-1.0			28.654692888259888	0.19995713233947754
6	23.23923420906067	response_window	3	-1	72	97	0.0	1.0	1.0	0.015000000000000003	-1.0	0.0	0.0	-1.0	6.0	-1.0			28.854650020599365	1.1996138095855713
6	24.43884801864624	feedback_window	4	-1	18	97	0.0	1.0	1.0	0.015000000000000003	-1.0	0.0	0.0	-1.0	6.0	-1.0			30.054263830184937	0.2998371124267578
6	24.738685131072998	ITI_window	5	-1	39	97	0.0	1.0	1.0	0.015000000000000003	-1.0	0.0	0.0	-1.0	6.0	-1.0			30.354100942611694	0.6498990058898926
7	25.38858413696289	blockStart	0	-1	0	97	0.0	1.0	1.0	0.030000000000000006	-1.0	0.0	0.0	-1.0	7.0	-1.0			31.003999948501587	0.004332065582275391
7	25.392916202545166	baseline_window	1	-1	29	97	0.0	1.0	1.0	0.030000000000000006	-1.0	0.0	0.0	-1.0	7.0	-1.0			31.008332014083862	0.4789729118347168
7	25.871889114379883	stimulus_window	2	-1	12	97	0.0	1.0	1.0	0.030000000000000006	-1.0	0.0	0.0	-1.0	7.0	-1.0			31.48730492591858	0.19974994659423828
7	26.07163906097412	response_window	3	-1	45	97	0.0	1.0	1.0	0.030000000000000006	-1.0	0.0	0.0	-1.0	7.0	-1.0			31.687054872512817	0.7495391368865967
7	26.795100212097168	response	3	1	45						1.0			0.9232110977172852		1.0	l		32.410516023635864	
7	26.821178197860718	feedback_window	4	1	19	97	0.0	1.0	1.0	0.030000000000000006	1.0	0.0	0.0	0.9232110977172852	7.0	1.0			32.436594009399414	0.3165140151977539
7	27.13769221305847	ITI_window	5	1	59	97	0.0	1.0	1.0	0.030000000000000006	1.0	0.0	0.0	0.9232110977172852	7.0	1.0			32.75310802459717	0.9829080104827881
8	28.12060022354126	blockStart	0	-1	0	97	0.0	0.0	0.0	0.0	-1.0	0.0	0.0	-1.0	8.0	-1.0			33.736016035079956	0.002689838409423828
8	28.123290061950684	baseline_window	1	-1	30	97	0.0	0.0	0.0	0.0	-1.0	0.0	0.0	-1.0	8.0	-1.0			33.73870587348938	0.49715614318847656
8	28.62044620513916	stimulus_window	2	-1	12	97	0.0	0.0	0.0	0.0	-1.0	0.0	0.0	-1.0	8.0	-1.0			34.235862016677856	0.20007991790771484
8	28.820526123046875	response_window	3	-1	72	97	0.0	0.0	0.0	0.0	-1.0	0.0	0.0	-1.0	8.0	-1.0			34.43594193458557	1.199713945388794
8	30.02024006843567	feedback_window	4	-1	18	97	0.0	0.0	0.0	0.0	-1.0	0.0	0.0	-1.0	8.0	-1.0			35.635655879974365	0.2998239994049072
8	30.320064067840576	ITI_window	5	-1	46	97	0.0	0.0	0.0	0.0	-1.0	0.0	0.0	-1.0	8.0	-1.0			35.93547987937927	0.7663819789886475
9	31.086446046829224	blockStart	0	-1	0	97	0.0	1.0	1.0	0.030000000000000006	-1.0	0.0	0.0	-1.0	9.0	-1.0			36.70186185836792	0.0037200450897216797
9	31.090166091918945	baseline_window	1	-1	29	97	0.0	1.0	1.0	0.030000000000000006	-1.0	0.0	0.0	-1.0	9.0	-1.0			36.70558190345764	0.4793379306793213
9	31.569504022598267	stimulus_window	2	-1	12	97	0.0	1.0	1.0	0.030000000000000006	-1.0	0.0	0.0	-1.0	9.0	-1.0			37.18491983413696	0.20018601417541504
9	31.76969003677368	response_window	3	-1	55	97	0.0	1.0	1.0	0.030000000000000006	-1.0	0.0	0.0	-1.0	9.0	-1.0			37.38510584831238	0.9162490367889404
9	32.659590005874634	response	3	1	55						1.0			1.0900859832763672		1.0	l		38.27500581741333	
9	32.68593907356262	feedback_window	4	1	19	97	0.0	1.0	1.0	0.030000000000000006	1.0	0.0	0.0	1.0900859832763672	9.0	1.0			38.30135488510132	0.3166539669036865
9	33.00259304046631	ITI_window	5	1	59	97	0.0	1.0	1.0	0.030000000000000006	1.0	0.0	0.0	1.0900859832763672	9.0	1.0			38.618008852005005	0.9829130172729492
10	33.98550605773926	blockStart	0	-1	0	97	0.0	1.0	0.0	0.005	-1.0	0.0	0.0	-1.0	10.0	-1.0			39.600921869277954	0.004093170166015625
10	33.98959922790527	baseline_window	1	-1	30	97	0.0	1.0	0.0	0.005	-1.0	0.0	0.0	-1.0	10.0	-1.0			39.60501503944397	0.49596285820007324
10	34.48556208610535	stimulus_window	2	-1	12	97	0.0	1.0	0.0	0.005	-1.0	0.0	0.0	-1.0	10.0	-1.0			40.10097789764404	0.1997690200805664
10	34.68533110618591	response_window	3	-1	19	97	0.0	1.0	0.0	0.005	-1.0	0.0	0.0	-1.0	10.0	-1.0			40.30074691772461	0.31653904914855957
10	34.974510192871094	response	3	0	19						0.0			0.48894810676574707		0.0	s		40.58992600440979	
10	35.00187015533447	feedback_window	4	0	19	97	0.0	1.0	0.0	0.005	0.0	0.0	0.0	0.48894810676574707	10.0	0.0			40.61728596687317	0.31681299209594727
10	35.31868314743042	ITI_window	5	0	36	97	0.0	1.0	0.0	0.005	0.0	0.0	0.0	0.48894810676574707	10.0	0.0			40.934098958969116	0.5994689464569092
11	35.91815209388733	blockStart	0	-1	0	97	0.0	1.0	1.0	0.015000000000000003	-1.0	0.0	0.0	-1.0	11.0	-1.0			41.533567905426025	0.0046100616455078125
11	35.92276215553284	baseline_window	1	-1	29	97	0.0	1.0	1.0	0.015000000000000003	-1.0	0.0	0.0	-1.0	11.0	-1.0			41.53817796707153	0.4786520004272461
11	36.40141415596008	stimulus_window	2	-1	12	97	0.0	1.0	1.0	0.015000000000000003	-1.0	0.0	0.0	-1.0	11.0	-1.0			42.01682996749878	0.19992399215698242
11	36.601338148117065	response_window	3	-1	27	97	0.0	1.0	1.0	0.015000000000000003	-1.0	0.0	0.0	-1.0	11.0	-1.0			42.21675395965576	0.4500150680541992
11	37.02388310432434	response	3	0	27						0.0			0.6224689483642578		1.0	a		42.63929891586304	
11	37.051353216171265	feedback_window	4	0	19	97	0.0	1.0	1.0	0.015000000000000003	0.0	0.0	0.0		11.0	1.0		0.6224689483642578	42.66676902770996	0.31669187545776367
11	37.36804509162903	ITI_window	5	0	42	97	0.0	1.0	1.0	0.015000000000000003	0.0	0.0	0.0		11.0	1.0		0.6224689483642578	42.983460903167725	0.6996490955352783
12	38.06769418716431	blockStart	0	-1	0	97	0.0	1.0	1.0	0.020000000000000004	-1.0	0.0	0.0	-1.0	12.0	-1.0			43.683109998703	0.004305839538574219
12	38.07200002670288	baseline_window	1	-1	29	97	0.0	1.0	1.0	0.020000000000000004	-1.0	0.0	0.0	-1.0	12.0	-1.0			43.68741583824158	0.47893309593200684
12	38.55093312263489	stimulus_window	2	-1	12	97	0.0	1.0	1.0	0.020000000000000004	-1.0	0.0	0.0	-1.0	12.0	-1.0			44.166348934173584	0.1997840404510498
12	38.75071716308594	response_window	3	-1	50	97	0.0	1.0	1.0	0.020000000000000004	-1.0	0.0	0.0	-1.0	12.0	-1.0			44.366132974624634	0.8327820301055908
12	39.556979179382324	response	3	1	50						1.0			1.0060460567474365		0.0	k		45.17239499092102	
12	39.58349919319153	feedback_window	4	1	19	97	0.0	1.0	1.0	0.020000000000000004	1.0	0.0	0.0	1.0060460567474365	12.0	0.0			45.198915004730225	0.316910982131958
12	39.900410175323486	ITI_window	5	1	52	97	0.0	1.0	1.0	0.020000000000000004	1.0	0.0	0.0	1.0060460567474365	12.0	0.0			45.51582598686218	0.8661079406738281
13	40.766518115997314	blockStart	0	-1	0	97	0.0	1.0	1.0	0.05	-1.0	0.0	0.0	-1.0	13.0	-1.0			46.38193392753601	0.0042569637298583984
13	40.77077507972717	baseline_window	1	-1	29	97	0.0	1.0	1.0	0.05	-1.0	0.0	0.0	-1.0	13.0	-1.0			46.38619089126587	0.4789900779724121
13	41.249765157699585	stimulus_window	2	-1	12	97	0.0	1.0	1.0	0.05	-1.0	0.0	0.0	-1.0	13.0	-1.0			46.86518096923828	0.20007085800170898
13	41.449836015701294	response_window	3	-1	40	97	0.0	1.0	1.0	0.05	-1.0	0.0	0.0	-1.0	13.0	-1.0			47.06525182723999	0.6665291786193848
13	42.08933210372925	response	3	1	40						1.0			0.8395669460296631		1.0	l		47.704747915267944	
13	42.11636519432068	feedback_window	4	1	19	97	0.0	1.0	1.0	0.05	1.0	0.0	0.0	0.8395669460296631	13.0	1.0			47.731781005859375	0.31648993492126465
13	42.43285512924194	ITI_window	5	1	43	97	0.0	1.0	1.0	0.05	1.0	0.0	0.0	0.8395669460296631	13.0	1.0			48.04827094078064	0.716480016708374
14	43.14933514595032	blockStart	0	-1	0	97	0.0	0.0	0.0	0.0	-1.0	0.0	0.0	-1.0	14.0	-1.0			48.764750957489014	0.0033190250396728516
14	43.15265417098999	baseline_window	1	-1	30	97	0.0	0.0	0.0	0.0	-1.0	0.0	0.0	-1.0	14.0	-1.0			48.76806998252869	0.49663686752319336
14	43.649291038513184	stimulus_window	2	-1	12	97	0.0	0.0	0.0	0.0	-1.0	0.0	0.0	-1.0	14.0	-1.0			49.26470685005188	0.1999220848083496
14	43.84921312332153	response_window	3	-1	61	97	0.0	0.0	0.0	0.0	-1.0	0.0	0.0	-1.0	14.0	-1.0			49.46462893486023	1.0159659385681152
14	44.83482003211975	response	3	1	61						0.0			1.1855289936065674		0.0	k		50.45023584365845	
14	44.86517906188965	feedback_window	4	1	19	97	0.0	0.0	0.0	0.0	0.0	0.0	0.0	1.1855289936065674	14.0	0.0			50.480594873428345	0.3166351318359375
14	45.181814193725586	ITI_window	5	1	51	97	0.0	0.0	0.0	0.0	0.0	0.0	0.0	1.1855289936065674	14.0	0.0			50.79723000526428	0.8496279716491699
15	46.031442165374756	blockStart	0	-1	0	97	0.0	1.0	0.0	0.04	-1.0	0.0	0.0	-1.0	15.0	-1.0			51.64685797691345	0.003965854644775391
15	46.03540802001953	baseline_window	1	-1	29	97	0.0	1.0	0.0	0.04	-1.0	0.0	0.0	-1.0	15.0	-1.0			51.65082383155823	0.4795701503753662
15	46.5149781703949	stimulus_window	2	-1	12	97	0.0	1.0	0.0	0.04	-1.0	0.0	0.0	-1.0	15.0	-1.0			52.130393981933594	0.199815034866333
15	46.71479320526123	response_window	3	-1	35	97	0.0	1.0	0.0	0.04	-1.0	0.0	0.0	-1.0	15.0	-1.0			52.33020901679993	0.5831248760223389
15	47.27020716667175	response	3	1	35						1.0			0.7552289962768555		0.0	k		52.88562297821045	
15	47.29791808128357	feedback_window	4	1	19	97	0.0	1.0	0.0	0.04	1.0	0.0	0.0	0.7552289962768555	15.0	0.0			52.913333892822266	0.31659698486328125
15	47.61451506614685	ITI_window	5	1	37	97	0.0	1.0	0.0	0.04	1.0	0.0	0.0	0.7552289962768555	15.0	0.0			53.22993087768555	0.6164231300354004
16	48.23093819618225	blockStart	0	-1	0	97	0.0	1.0	0.0	0.020000000000000004	-1.0	0.0	0.0	-1.0	16.0	-1.0			53.84635400772095	0.004019975662231445
16	48.23495817184448	baseline_window	1	-1	29	97	0.0	1.0	0.0	0.020000000000000004	-1.0	0.0	0.0	-1.0	16.0	-1.0			53.85037398338318	0.4790048599243164
16	48.7139630317688	stimulus_window	2	-1	12	97	0.0	1.0	0.0	0.020000000000000004	-1.0	0.0	0.0	-1.0	16.0	-1.0			54.329378843307495	0.19995617866516113
16	48.91391921043396	response_window	3	-1	22	97	0.0	1.0	0.0	0.020000000000000004	-1.0	0.0	0.0	-1.0	16.0	-1.0			54.529335021972656	0.36635589599609375
16	49.25336408615112	response	3	1	22						1.0			0.5394010543823242		1.0	l		54.86877989768982	
16	49.280275106430054	feedback_window	4	1	19	97	0.0	1.0	0.0	0.020000000000000004	1.0	0.0	0.0	0.5394010543823242	16.0	1.0			54.89569091796875	0.31682801246643066
16	49.597103118896484	ITI_window	5	1	58	97	0.0	1.0	0.0	0.020000000000000004	1.0	0.0	0.0	0.5394010543823242	16.0	1.0			55.21251893043518	0.9662179946899414
17	50.563321113586426	blockStart	0	-1	0	97	0.0	0.0	0.0	0.0	-1.0	0.0	0.0	-1.0	17.0	-1.0			56.17873692512512	0.004266977310180664
17	50.567588090896606	baseline_window	1	-1	29	97	0.0	0.0	0.0	0.0	-1.0	0.0	0.0	-1.0	17.0	-1.0			56.1830039024353	0.47916102409362793
17	51.046749114990234	stimulus_window	2	-1	12	97	0.0	0.0	0.0	0.0	-1.0	0.0	0.0	-1.0	17.0	-1.0			56.66216492652893	0.19993090629577637
17	51.24668002128601	response_window	3	-1	37	97	0.0	0.0	0.0	0.0	-1.0	0.0	0.0	-1.0	17.0	-1.0			56.86209583282471	0.6162431240081787
17	51.83513903617859	response	3	1	37						0.0			0.7883899211883545		0.0	k		57.450554847717285	
17	51.86292314529419	feedback_window	4	1	19	97	0.0	0.0	0.0	0.0	0.0	0.0	0.0	0.7883899211883545	17.0	0.0			57.478338956832886	0.31664204597473145
17	52.17956519126892	ITI_window	5	1	50	97	0.0	0.0	0.0	0.0	0.0	0.0	0.0	0.7883899211883545	17.0	0.0			57.79498100280762	0.8329188823699951
18	53.012484073638916	blockStart	0	-1	0	97	0.0	1.0	0.0	0.005	-1.0	0.0	0.0	-1.0	18.0	-1.0			58.62789988517761	0.003812074661254883
18	53.01629614830017	baseline_window	1	-1	30	97	0.0	1.0	0.0	0.005	-1.0	0.0	0.0	-1.0	18.0	-1.0			58.63171195983887	0.49606800079345703
18	53.51236414909363	stimulus_window	2	-1	12	97	0.0	1.0	0.0	0.005	-1.0	0.0	0.0	-1.0	18.0	-1.0			59.127779960632324	0.20011496543884277
18	53.71247911453247	response_window	3	-1	26	97	0.0	1.0	0.0	0.005	-1.0	0.0	0.0	-1.0	18.0	-1.0			59.32789492607117	0.43294191360473633
18	54.118216037750244	response	3	0	26						0.0			0.6058518886566162		0.0	s		59.73363184928894	
18	54.14542102813721	feedback_window	4	0	19	97	0.0	1.0	0.0	0.005	0.0	0.0	0.0	0.6058518886566162	18.0	0.0			59.7608368396759	0.31685900688171387
18	54.46228003501892	ITI_window	5	0	54	97	0.0	1.0	0.0	0.005	0.0	0.0	0.0	0.6058518886566162	18.0	0.0			60.07769584655762	0.8993620872497559
19	55.36164212226868	blockStart	0	-1	0	97	0.0	1.0	1.0	0.04	-1.0	0.0	0.0	-1.0	19.0	-1.0			60.97705793380737	0.003464937210083008
19	55.36510705947876	baseline_window	1	-1	29	97	0.0	1.0	1.0	0.04	-1.0	0.0	0.0	-1.0	19.0	-1.0			60.980522871017456	0.479694128036499
19	55.84480118751526	stimulus_window	2	-1	12	97	0.0	1.0	1.0	0.04	-1.0	0.0	0.0	-1.0	19.0	-1.0			61.460216999053955	0.2002708911895752
19	56.045072078704834	response_window	3	-1	41	97	0.0	1.0	1.0	0.04	-1.0	0.0	0.0	-1.0	19.0	-1.0			61.66048789024353	0.6830220222473145
19	56.70117402076721	response	3	1	41						1.0			0.8563728332519531		1.0	l		62.31658983230591	
19	56.72809410095215	feedback_window	4	1	19	97	0.0	1.0	1.0	0.04	1.0	0.0	0.0	0.8563728332519531	19.0	1.0			62.343509912490845	0.31678295135498047
19	57.04487705230713	ITI_window	5	1	40	97	0.0	1.0	1.0	0.04	1.0	0.0	0.0	0.8563728332519531	19.0	1.0			62.660292863845825	0.6663031578063965
20	57.711180210113525	blockStart	0	-1	0	97	0.0	1.0	0.0	0.020000000000000004	-1.0	0.0	0.0	-1.0	20.0	-1.0			63.32659602165222	0.0045719146728515625
20	57.71575212478638	baseline_window	1	-1	30	97	0.0	1.0	0.0	0.020000000000000004	-1.0	0.0	0.0	-1.0	20.0	-1.0			63.33116793632507	0.4953029155731201
20	58.2110550403595	stimulus_window	2	-1	12	97	0.0	1.0	0.0	0.020000000000000004	-1.0	0.0	0.0	-1.0	20.0	-1.0			63.82647085189819	0.20012402534484863
20	58.411179065704346	response_window	3	-1	40	97	0.0	1.0	0.0	0.020000000000000004	-1.0	0.0	0.0	-1.0	20.0	-1.0			64.02659487724304	0.6661040782928467
20	59.049846172332764	response	3	1	40						1.0			0.8387911319732666		0.0	k		64.66526198387146	
20	59.07728314399719	feedback_window	4	1	19	97	0.0	1.0	0.0	0.020000000000000004	1.0	0.0	0.0	0.8387911319732666	20.0	0.0			64.69269895553589	0.3164708614349365
20	59.39375400543213	ITI_window	5	1	56	97	0.0	1.0	0.0	0.020000000000000004	1.0	0.0	0.0	0.8387911319732666	20.0	0.0			65.00916981697083	0.9498422145843506
21	60.34359622001648	blockStart	0	-1	0	97	0.0	1.0	0.0	0.045000000000000005	-1.0	0.0	0.0	-1.0	21.0	-1.0			65.95901203155518	0.0037047863006591797
21	60.34730100631714	baseline_window	1	-1	30	97	0.0	1.0	0.0	0.045000000000000005	-1.0	0.0	0.0	-1.0	21.0	-1.0			65.96271681785583	0.4960150718688965
21	60.843316078186035	stimulus_window	2	-1	12	97	0.0	1.0	0.0	0.045000000000000005	-1.0	0.0	0.0	-1.0	21.0	-1.0			66.45873188972473	0.19994211196899414
21	61.04325819015503	response_window	3	-1	40	97	0.0	1.0	0.0	0.045000000000000005	-1.0	0.0	0.0	-1.0	21.0	-1.0			66.65867400169373	0.6664998531341553
21	61.68263101577759	response	3	1	40						1.0			0.8393149375915527		1.0	l		67.29804682731628	
21	61.709758043289185	feedback_window	4	1	19	97	0.0	1.0	0.0	0.045000000000000005	1.0	0.0	0.0	0.8393149375915527	21.0	1.0			67.32517385482788	0.3167099952697754
21	62.02646803855896	ITI_window	5	1	49	97	0.0	1.0	0.0	0.045000000000000005	1.0	0.0	0.0	0.8393149375915527	21.0	1.0			67.64188385009766	0.8160159587860107
22	62.84248399734497	blockStart	0	-1	0	97	0.0	0.0	1.0	0.0	-1.0	0.0	0.0	-1.0	22.0	-1.0			68.45789980888367	0.002638101577758789
22	62.84512209892273	baseline_window	1	-1	29	97	0.0	0.0	1.0	0.0	-1.0	0.0	0.0	-1.0	22.0	-1.0			68.46053791046143	0.48071789741516113
22	63.32583999633789	stimulus_window	2	-1	12	97	0.0	0.0	1.0	0.0	-1.0	0.0	0.0	-1.0	22.0	-1.0			68.94125580787659	0.20006012916564941
22	63.52590012550354	response_window	3	-1	38	97	0.0	0.0	1.0	0.0	-1.0	0.0	0.0	-1.0	22.0	-1.0			69.14131593704224	0.6328980922698975
22	64.13248610496521	response	3	0	38						1.0			0.8066461086273193		0.0	s		69.7479019165039	
22	64.15879821777344	feedback_window	4	0	19	97	0.0	0.0	1.0	0.0	1.0	0.0	0.0	0.8066461086273193	22.0	0.0			69.77421402931213	0.31685781478881836
22	64.47565603256226	ITI_window	5	0	51	97	0.0	0.0	1.0	0.0	1.0	0.0	0.0	0.8066461086273193	22.0	0.0			70.09107184410095	0.8494861125946045
23	65.32514214515686	blockStart	0	-1	0	97	0.0	1.0	1.0	0.04	-1.0	0.0	0.0	-1.0	23.0	-1.0			70.94055795669556	0.003113985061645508
23	65.3282561302185	baseline_window	1	-1	29	97	0.0	1.0	1.0	0.04	-1.0	0.0	0.0	-1.0	23.0	-1.0			70.9436719417572	0.48034095764160156
23	65.80859708786011	stimulus_window	2	-1	12	97	0.0	1.0	1.0	0.04	-1.0	0.0	0.0	-1.0	23.0	-1.0			71.4240128993988	0.19992899894714355
23	66.00852608680725	response_window	3	-1	64	97	0.0	1.0	1.0	0.04	-1.0	0.0	0.0	-1.0	23.0	-1.0			71.62394189834595	1.0661580562591553
23	67.04704308509827	response	3	1	64						1.0			1.2384459972381592		0.0	k		72.66245889663696	
23	67.0746841430664	feedback_window	4	1	19	97	0.0	1.0	1.0	0.04	1.0	0.0	0.0	1.2384459972381592	23.0	0.0			72.6900999546051	0.3168339729309082
23	67.39151811599731	ITI_window	5	1	52	97	0.0	1.0	1.0	0.04	1.0	0.0	0.0	1.2384459972381592	23.0	0.0			73.00693392753601	0.865947961807251
24	68.25746607780457	blockStart	0	-1	0	97	0.0	1.0	1.0	0.045000000000000005	-1.0	0.0	0.0	-1.0	24.0	-1.0			73.87288188934326	0.0037479400634765625
24	68.26121401786804	baseline_window	1	-1	30	97	0.0	1.0	1.0	0.045000000000000005	-1.0	0.0	0.0	-1.0	24.0	-1.0			73.87662982940674	0.49610018730163574
24	68.75731420516968	stimulus_window	2	-1	12	97	0.0	1.0	1.0	0.045000000000000005	-1.0	0.0	0.0	-1.0	24.0	-1.0			74.37273001670837	0.2000749111175537
24	68.95738911628723	response_window	3	-1	26	97	0.0	1.0	1.0	0.045000000000000005	-1.0	0.0	0.0	-1.0	24.0	-1.0			74.57280492782593	0.433258056640625
24	69.36294102668762	response	3	1	26						1.0			0.6056268215179443		1.0	l		74.97835683822632	
24	69.39064717292786	feedback_window	4	1	19	97	0.0	1.0	1.0	0.045000000000000005	1.0	0.0	0.0	0.6056268215179443	24.0	1.0			75.00606298446655	0.31624603271484375
24	69.7068932056427	ITI_window	5	1	54	97	0.0	1.0	1.0	0.045000000000000005	1.0	0.0	0.0	0.6056268215179443	24.0	1.0			75.3223090171814	0.9000329971313477
25	70.60692620277405	blockStart	0	-1	0	97	0.0	1.0	1.0	0.035	-1.0	0.0	0.0	-1.0	25.0	-1.0			76.22234201431274	0.0038030147552490234
25	70.6107292175293	baseline_window	1	-1	29	97	0.0	1.0	1.0	0.035	-1.0	0.0	0.0	-1.0	25.0	-1.0			76.226145029068	0.4794309139251709
25	71.09016013145447	stimulus_window	2	-1	12	97	0.0	1.0	1.0	0.035	-1.0	0.0	0.0	-1.0	25.0	-1.0			76.70557594299316	0.19980788230895996
25	71.28996801376343	response_window	3	-1	23	97	0.0	1.0	1.0	0.035	-1.0	0.0	0.0	-1.0	25.0	-1.0			76.90538382530212	0.38321614265441895
25	71.64626812934875	response	3	1	23						1.0			0.5561079978942871		1.0	l		77.26168394088745	
25	71.67318415641785	feedback_window	4	1	19	97	0.0	1.0	1.0	0.035	1.0	0.0	0.0	0.5561079978942871	25.0	1.0			77.28859996795654	0.31649303436279297
25	71.98967719078064	ITI_window	5	1	59	97	0.0	1.0	1.0	0.035	1.0	0.0	0.0	0.5561079978942871	25.0	1.0			77.60509300231934	0.9831030368804932
26	72.97278022766113	blockStart	0	-1	0	97	0.0	1.0	1.0	0.015000000000000003	-1.0	0.0	0.0	-1.0	26.0	-1.0			78.58819603919983	0.0037338733673095703
26	72.97651410102844	baseline_window	1	-1	30	97	0.0	1.0	1.0	0.015000000000000003	-1.0	0.0	0.0	-1.0	26.0	-1.0			78.59192991256714	0.49600911140441895
26	73.47252321243286	stimulus_window	2	-1	12	97	0.0	1.0	1.0	0.015000000000000003	-1.0	0.0	0.0	-1.0	26.0	-1.0			79.08793902397156	0.20032978057861328
26	73.67285299301147	response_window	3	-1	22	97	0.0	1.0	1.0	0.015000000000000003	-1.0	0.0	0.0	-1.0	26.0	-1.0			79.28826880455017	0.3661341667175293
26	74.01156711578369	response	3	1	22						1.0			0.5390439033508301		1.0	l		79.62698292732239	
26	74.038987159729	feedback_window	4	1	19	97	0.0	1.0	1.0	0.015000000000000003	1.0	0.0	0.0	0.5390439033508301	26.0	1.0			79.6544029712677	0.3169670104980469
26	74.35595417022705	ITI_window	5	1	44	97	0.0	1.0	1.0	0.015000000000000003	1.0	0.0	0.0	0.5390439033508301	26.0	1.0			79.97136998176575	0.7328979969024658
27	75.08885216712952	blockStart	0	-1	0	97	0.0	0.0	0.0	0.0	-1.0	0.0	0.0	-1.0	27.0	-1.0			80.70426797866821	0.0038449764251708984
27	75.09269714355469	baseline_window	1	-1	30	97	0.0	0.0	0.0	0.0	-1.0	0.0	0.0	-1.0	27.0	-1.0			80.70811295509338	0.49591588973999023
27	75.58861303329468	stimulus_window	2	-1	12	97	0.0	0.0	0.0	0.0	-1.0	0.0	0.0	-1.0	27.0	-1.0			81.20402884483337	0.1998300552368164
27	75.7884430885315	response_window	3	-1	54	97	0.0	0.0	0.0	0.0	-1.0	0.0	0.0	-1.0	27.0	-1.0			81.40385890007019	0.8998379707336426
27	76.66129803657532	response	3	0	54						1.0			1.0726850032806396		0.0	s		82.27671384811401	
27	76.68828105926514	feedback_window	4	0	19	97	0.0	0.0	0.0	0.0	1.0	0.0	0.0	1.0726850032806396	27.0	0.0			82.30369687080383	0.3166320323944092
27	77.00491309165955	ITI_window	5	0	46	97	0.0	0.0	0.0	0.0	1.0	0.0	0.0	1.0726850032806396	27.0	0.0			82.62032890319824	0.7663910388946533
28	77.7713041305542	blockStart	0	-1	0	97	0.0	0.0	1.0	0.0	-1.0	0.0	0.0	-1.0	28.0	-1.0			83.3867199420929	0.005024909973144531
28	77.77632904052734	baseline_window	1	-1	29	97	0.0	0.0	1.0	0.0	-1.0	0.0	0.0	-1.0	28.0	-1.0			83.39174485206604	0.4781789779663086
28	78.25450801849365	stimulus_window	2	-1	12	97	0.0	0.0	1.0	0.0	-1.0	0.0	0.0	-1.0	28.0	-1.0			83.86992383003235	0.1997661590576172
28	78.45427417755127	response_window	3	-1	51	97	0.0	0.0	1.0	0.0	-1.0	0.0	0.0	-1.0	28.0	-1.0			84.06968998908997	0.8495419025421143
28	79.27716207504272	response	3	0	51						1.0			1.0226540565490723		0.0	s		84.89257788658142	
28	79.30381608009338	feedback_window	4	0	19	97	0.0	0.0	1.0	0.0	1.0	0.0	0.0	1.0226540565490723	28.0	0.0			84.91923189163208	0.31711292266845703
28	79.62092900276184	ITI_window	5	0	59	97	0.0	0.0	1.0	0.0	1.0	0.0	0.0	1.0226540565490723	28.0	0.0			85.23634481430054	0.9823651313781738
29	80.60329413414001	blockStart	0	-1	0	97	0.0	0.0	0.0	0.0	-1.0	0.0	0.0	-1.0	29.0	-1.0			86.21870994567871	0.004312038421630859
29	80.60760617256165	baseline_window	1	-1	29	97	0.0	0.0	0.0	0.0	-1.0	0.0	0.0	-1.0	29.0	-1.0			86.22302198410034	0.47934794425964355
29	81.08695411682129	stimulus_window	2	-1	12	97	0.0	0.0	0.0	0.0	-1.0	0.0	0.0	-1.0	29.0	-1.0			86.70236992835999	0.19979095458984375
29	81.28674507141113	response_window	3	-1	48	97	0.0	0.0	0.0	0.0	-1.0	0.0	0.0	-1.0	29.0	-1.0			86.90216088294983	0.7996511459350586
29	82.05896711349487	response	3	0	48						1.0			0.972012996673584		0.0	s		87.67438292503357	
29	82.08639621734619	feedback_window	4	0	19	97	0.0	0.0	0.0	0.0	1.0	0.0	0.0	0.972012996673584	29.0	0.0			87.70181202888489	0.31638288497924805
29	82.40277910232544	ITI_window	5	0	43	97	0.0	0.0	0.0	0.0	1.0	0.0	0.0	0.972012996673584	29.0	0.0			88.01819491386414	0.7166359424591064
30	83.11941504478455	blockStart	0	-1	0	97	0.0	0.0	0.0	0.0	-1.0	0.0	0.0	-1.0	30.0	-1.0			88.73483085632324	0.0038831233978271484
30	83.12329816818237	baseline_window	1	-1	30	97	0.0	0.0	0.0	0.0	-1.0	0.0	0.0	-1.0	30.0	-1.0			88.73871397972107	0.4961249828338623
30	83.61942315101624	stimulus_window	2	-1	12	97	0.0	0.0	0.0	0.0	-1.0	0.0	0.0	-1.0	30.0	-1.0			89.23483896255493	0.19997406005859375
30	83.81939721107483	response_window	3	-1	63	97	0.0	0.0	0.0	0.0	-1.0	0.0	0.0	-1.0	30.0	-1.0			89.43481302261353	1.1161649227142334
30	84.9083092212677	response	3	1	63						0.0			1.2888860702514648		0.0	k		90.5237250328064	
30	84.93556213378906	feedback_window	4	1	19	97	0.0	0.0	0.0	0.0	0.0	0.0	0.0	1.2888860702514648	30.0	0.0			90.55097794532776	0.3166980743408203
30	85.25226020812988	ITI_window	5	1	58	97	0.0	0.0	0.0	0.0	0.0	0.0	0.0	1.2888860702514648	30.0	0.0			90.86767601966858	0.966195821762085
31	86.21845602989197	blockStart	0	-1	0	97	0.0	1.0	1.0	0.05	-1.0	0.0	0.0	-1.0	31.0	-1.0			91.83387184143066	0.004462003707885742
31	86.22291803359985	baseline_window	1	-1	29	97	0.0	1.0	1.0	0.05	-1.0	0.0	0.0	-1.0	31.0	-1.0			91.83833384513855	0.47857213020324707
31	86.7014901638031	stimulus_window	2	-1	12	97	0.0	1.0	1.0	0.05	-1.0	0.0	0.0	-1.0	31.0	-1.0			92.3169059753418	0.19995999336242676
31	86.90145015716553	response_window	3	-1	38	97	0.0	1.0	1.0	0.05	-1.0	0.0	0.0	-1.0	31.0	-1.0			92.51686596870422	0.633228063583374
31	87.50743818283081	response	3	1	38						1.0			0.80594801902771		1.0	l		93.1228539943695	
31	87.5346782207489	feedback_window	4	1	19	97	0.0	1.0	1.0	0.05	1.0	0.0	0.0	0.80594801902771	31.0	1.0			93.1500940322876	0.31656599044799805
31	87.8512442111969	ITI_window	5	1	53	97	0.0	1.0	1.0	0.05	1.0	0.0	0.0	0.80594801902771	31.0	1.0			93.4666600227356	0.8826448917388916
32	88.73388910293579	blockStart	0	-1	0	97	0.0	1.0	1.0	0.035	-1.0	0.0	0.0	-1.0	32.0	-1.0			94.34930491447449	0.003771066665649414
32	88.73766016960144	baseline_window	1	-1	30	97	0.0	1.0	1.0	0.035	-1.0	0.0	0.0	-1.0	32.0	-1.0			94.35307598114014	0.49622201919555664
32	89.233882188797	stimulus_window	2	-1	12	97	0.0	1.0	1.0	0.035	-1.0	0.0	0.0	-1.0	32.0	-1.0			94.8492980003357	0.19998383522033691
32	89.43386602401733	response_window	3	-1	21	97	0.0	1.0	1.0	0.035	-1.0	0.0	0.0	-1.0	32.0	-1.0			95.04928183555603	0.3500041961669922
32	89.7566351890564	response	3	1	21						1.0			0.5227530002593994		1.0	l		95.37205100059509	
32	89.78387022018433	feedback_window	4	1	19	97	0.0	1.0	1.0	0.035	1.0	0.0	0.0	0.5227530002593994	32.0	1.0			95.39928603172302	0.3166818618774414
32	90.10055208206177	ITI_window	5	1	41	97	0.0	1.0	1.0	0.035	1.0	0.0	0.0	0.5227530002593994	32.0	1.0			95.71596789360046	0.6827709674835205
33	90.78332304954529	blockStart	0	-1	0	97	0.0	0.0	1.0	0.0	-1.0	0.0	0.0	-1.0	33.0	-1.0			96.39873886108398	0.00399017333984375
33	90.78731322288513	baseline_window	1	-1	29	97	0.0	0.0	1.0	0.0	-1.0	0.0	0.0	-1.0	33.0	-1.0			96.40272903442383	0.47930479049682617
33	91.26661801338196	stimulus_window	2	-1	12	97	0.0	0.0	1.0	0.0	-1.0	0.0	0.0	-1.0	33.0	-1.0			96.88203382492065	0.1998591423034668
33	91.46647715568542	response_window	3	-1	60	97	0.0	0.0	1.0	0.0	-1.0	0.0	0.0	-1.0	33.0	-1.0			97.08189296722412	0.9997868537902832
33	92.43938612937927	response	3	0	60						1.0			1.1727681159973145		0.0	s		98.05480194091797	
33	92.46626400947571	feedback_window	4	0	19	97	0.0	0.0	1.0	0.0	1.0	0.0	0.0	1.1727681159973145	33.0	0.0			98.0816798210144	0.3167860507965088
33	92.78305006027222	ITI_window	5	0	49	97	0.0	0.0	1.0	0.0	1.0	0.0	0.0	1.1727681159973145	33.0	0.0			98.39846587181091	0.8162670135498047
34	93.59931707382202	blockStart	0	-1	0	97	0.0	0.0	0.0	0.0	-1.0	0.0	0.0	-1.0	34.0	-1.0			99.21473288536072	0.004209041595458984
34	93.60352611541748	baseline_window	1	-1	29	97	0.0	0.0	0.0	0.0	-1.0	0.0	0.0	-1.0	34.0	-1.0			99.21894192695618	0.47885704040527344
34	94.08238315582275	stimulus_window	2	-1	12	97	0.0	0.0	0.0	0.0	-1.0	0.0	0.0	-1.0	34.0	-1.0			99.69779896736145	0.20001006126403809
34	94.28239321708679	response_window	3	-1	51	97	0.0	0.0	0.0	0.0	-1.0	0.0	0.0	-1.0	34.0	-1.0			99.89780902862549	0.8497269153594971
34	95.10483908653259	response	3	0	51						1.0			1.0224559307098389		1.0	a		100.72025489807129	
34	95.13212013244629	feedback_window	4	0	19	97	0.0	0.0	0.0	0.0	1.0	0.0	0.0		34.0	1.0		1.0224559307098389	100.74753594398499	0.3166630268096924
34	95.44878315925598	ITI_window	5	0	59	97	0.0	0.0	0.0	0.0	1.0	0.0	0.0		34.0	1.0		1.0224559307098389	101.06419897079468	0.9829258918762207
35	96.4317090511322	blockStart	0	-1	0	97	0.0	1.0	0.0	0.005	-1.0	0.0	0.0	-1.0	35.0	-1.0			102.0471248626709	0.00416111946105957
35	96.43587017059326	baseline_window	1	-1	30	97	0.0	1.0	0.0	0.005	-1.0	0.0	0.0	-1.0	35.0	-1.0			102.05128598213196	0.49567198753356934
35	96.93154215812683	stimulus_window	2	-1	12	97	0.0	1.0	0.0	0.005	-1.0	0.0	0.0	-1.0	35.0	-1.0			102.54695796966553	0.19986987113952637
35	97.13141202926636	response_window	3	-1	60	97	0.0	1.0	0.0	0.005	-1.0	0.0	0.0	-1.0	35.0	-1.0			102.74682784080505	0.9996931552886963
35	98.10457301139832	response	3	0	60						0.0			1.1730308532714844		1.0	a		103.71998882293701	
35	98.13110518455505	feedback_window	4	0	19	97	0.0	1.0	0.0	0.005	0.0	0.0	0.0		35.0	1.0		1.1730308532714844	103.74652099609375	0.3166778087615967
35	98.44778299331665	ITI_window	5	0	48	97	0.0	1.0	0.0	0.005	0.0	0.0	0.0		35.0	1.0		1.1730308532714844	104.06319880485535	0.7995870113372803
36	99.24737000465393	blockStart	0	-1	0	97	0.0	0.0	0.0	0.0	-1.0	0.0	0.0	-1.0	36.0	-1.0			104.86278581619263	0.004064083099365234
36	99.2514340877533	baseline_window	1	-1	30	97	0.0	0.0	0.0	0.0	-1.0	0.0	0.0	-1.0	36.0	-1.0			104.86684989929199	0.495866060256958
36	99.74730014801025	stimulus_window	2	-1	12	97	0.0	0.0	0.0	0.0	-1.0	0.0	0.0	-1.0	36.0	-1.0			105.36271595954895	0.19997286796569824
36	99.94727301597595	response_window	3	-1	57	97	0.0	0.0	0.0	0.0	-1.0	0.0	0.0	-1.0	36.0	-1.0			105.56268882751465	0.9496300220489502
36	100.86980700492859	response	3	0	57						1.0			1.122506856918335		1.0	a		106.48522281646729	
36	100.8969030380249	feedback_window	4	0	19	97	0.0	0.0	0.0	0.0	1.0	0.0	0.0		36.0	1.0		1.122506856918335	106.5123188495636	0.3164951801300049
36	101.21339821815491	ITI_window	5	0	59	97	0.0	0.0	0.0	0.0	1.0	0.0	0.0		36.0	1.0		1.122506856918335	106.8288140296936	0.9825859069824219
37	102.19598412513733	blockStart	0	-1	0	97	0.0	1.0	1.0	0.045000000000000005	-1.0	0.0	0.0	-1.0	37.0	-1.0			107.81139993667603	0.0040569305419921875
37	102.20004105567932	baseline_window	1	-1	30	97	0.0	1.0	1.0	0.045000000000000005	-1.0	0.0	0.0	-1.0	37.0	-1.0			107.81545686721802	0.49636316299438477
37	102.6964042186737	stimulus_window	2	-1	12	97	0.0	1.0	1.0	0.045000000000000005	-1.0	0.0	0.0	-1.0	37.0	-1.0			108.3118200302124	0.19985580444335938
37	102.89626002311707	response_window	3	-1	42	97	0.0	1.0	1.0	0.045000000000000005	-1.0	0.0	0.0	-1.0	37.0	-1.0			108.51167583465576	0.6996819972991943
37	103.56782722473145	response	3	1	42						1.0			0.8714230060577393		1.0	l		109.18324303627014	
37	103.59594202041626	feedback_window	4	1	19	97	0.0	1.0	1.0	0.045000000000000005	1.0	0.0	0.0	0.8714230060577393	37.0	1.0			109.21135783195496	0.3166542053222656
37	103.91259622573853	ITI_window	5	1	52	97	0.0	1.0	1.0	0.045000000000000005	1.0	0.0	0.0	0.8714230060577393	37.0	1.0			109.52801203727722	0.866398811340332
38	104.77899503707886	blockStart	0	-1	0	97	0.0	1.0	1.0	0.035	-1.0	0.0	0.0	-1.0	38.0	-1.0			110.39441084861755	0.004662990570068359
38	104.78365802764893	baseline_window	1	-1	29	97	0.0	1.0	1.0	0.035	-1.0	0.0	0.0	-1.0	38.0	-1.0			110.39907383918762	0.47850799560546875
38	105.2621660232544	stimulus_window	2	-1	12	97	0.0	1.0	1.0	0.035	-1.0	0.0	0.0	-1.0	38.0	-1.0			110.87758183479309	0.1999051570892334
38	105.46207118034363	response_window	3	-1	31	97	0.0	1.0	1.0	0.035	-1.0	0.0	0.0	-1.0	38.0	-1.0			111.07748699188232	0.5164809226989746
38	105.95174908638	response	3	1	31						1.0			0.6895830631256104		0.0	k		111.5671648979187	
38	105.9785521030426	feedback_window	4	1	19	97	0.0	1.0	1.0	0.035	1.0	0.0	0.0	0.6895830631256104	38.0	0.0			111.5939679145813	0.3167250156402588
38	106.29527711868286	ITI_window	5	1	43	97	0.0	1.0	1.0	0.035	1.0	0.0	0.0	0.6895830631256104	38.0	0.0			111.91069293022156	0.7160730361938477
39	107.01135015487671	blockStart	0	-1	0	97	0.0	0.0	0.0	0.0	-1.0	0.0	0.0	-1.0	39.0	-1.0			112.6267659664154	0.004356861114501953
39	107.01570701599121	baseline_window	1	-1	30	97	0.0	0.0	0.0	0.0	-1.0	0.0	0.0	-1.0	39.0	-1.0			112.63112282752991	0.49562716484069824
39	107.51133418083191	stimulus_window	2	-1	12	97	0.0	0.0	0.0	0.0	-1.0	0.0	0.0	-1.0	39.0	-1.0			113.1267499923706	0.1999340057373047
39	107.71126818656921	response_window	3	-1	47	97	0.0	0.0	0.0	0.0	-1.0	0.0	0.0	-1.0	39.0	-1.0			113.32668399810791	0.7831058502197266
39	108.46743702888489	response	3	1	47						0.0			0.9561028480529785		0.0	k		114.08285284042358	
39	108.49437403678894	feedback_window	4	1	19	97	0.0	0.0	0.0	0.0	0.0	0.0	0.0	0.9561028480529785	39.0	0.0			114.10978984832764	0.3164851665496826
39	108.81085920333862	ITI_window	5	1	44	97	0.0	0.0	0.0	0.0	0.0	0.0	0.0	0.9561028480529785	39.0	0.0			114.42627501487732	0.7332408428192139
40	109.54410004615784	blockStart	0	-1	0	97	0.0	1.0	0.0	0.015000000000000003	-1.0	0.0	0.0	-1.0	40.0	-1.0			115.15951585769653	0.003954172134399414
40	109.54805421829224	baseline_window	1	-1	29	97	0.0	1.0	0.0	0.015000000000000003	-1.0	0.0	0.0	-1.0	40.0	-1.0			115.16347002983093	0.4791748523712158
40	110.02722907066345	stimulus_window	2	-1	12	97	0.0	1.0	0.0	0.015000000000000003	-1.0	0.0	0.0	-1.0	40.0	-1.0			115.64264488220215	0.19984793663024902
40	110.2270770072937	response_window	3	-1	45	97	0.0	1.0	0.0	0.015000000000000003	-1.0	0.0	0.0	-1.0	40.0	-1.0			115.8424928188324	0.7498149871826172
40	110.94956111907959	response	3	1	45						1.0			0.9223320484161377		0.0	k		116.56497693061829	
40	110.97689199447632	feedback_window	4	1	19	97	0.0	1.0	0.0	0.015000000000000003	1.0	0.0	0.0	0.9223320484161377	40.0	0.0			116.59230780601501	0.3165111541748047
40	111.29340314865112	ITI_window	5	1	60	97	0.0	1.0	0.0	0.015000000000000003	1.0	0.0	0.0	0.9223320484161377	40.0	0.0			116.90881896018982	0.9993538856506348
41	112.29275703430176	blockStart	0	-1	0	97	0.0	0.0	0.0	0.0	-1.0	0.0	0.0	-1.0	41.0	-1.0			117.90817284584045	0.004264116287231445
41	112.29702115058899	baseline_window	1	-1	29	97	0.0	0.0	0.0	0.0	-1.0	0.0	0.0	-1.0	41.0	-1.0			117.91243696212769	0.4793529510498047
41	112.7763741016388	stimulus_window	2	-1	12	97	0.0	0.0	0.0	0.0	-1.0	0.0	0.0	-1.0	41.0	-1.0			118.39178991317749	0.19976806640625
41	112.97614216804504	response_window	3	-1	39	97	0.0	0.0	0.0	0.0	-1.0	0.0	0.0	-1.0	41.0	-1.0			118.59155797958374	0.6497039794921875
41	113.60094714164734	response	3	0	39						1.0			0.8245730400085449		0.0	s		119.21636295318604	
41	113.62584614753723	feedback_window	4	0	19	97	0.0	0.0	0.0	0.0	1.0	0.0	0.0	0.8245730400085449	41.0	0.0			119.24126195907593	0.3166060447692871
41	113.94245219230652	ITI_window	5	0	39	97	0.0	0.0	0.0	0.0	1.0	0.0	0.0	0.8245730400085449	41.0	0.0			119.55786800384521	0.6497948169708252
42	114.59224700927734	blockStart	0	-1	0	97	0.0	0.0	1.0	0.0	-1.0	0.0	0.0	-1.0	42.0	-1.0			120.20766282081604	0.0032570362091064453
42	114.59550404548645	baseline_window	1	-1	29	97	0.0	0.0	1.0	0.0	-1.0	0.0	0.0	-1.0	42.0	-1.0			120.21091985702515	0.4800691604614258
42	115.07557320594788	stimulus_window	2	-1	13	97	0.0	0.0	1.0	0.0	-1.0	0.0	0.0	-1.0	42.0	-1.0			120.69098901748657	0.21659088134765625
42	115.29216408729553	response_window	3	-1	72	97	0.0	0.0	1.0	0.0	-1.0	0.0	0.0	-1.0	42.0	-1.0			120.90757989883423	1.199563980102539
42	116.49172806739807	feedback_window	4	-1	18	97	0.0	0.0	1.0	0.0	-1.0	0.0	0.0	-1.0	42.0	-1.0			122.10714387893677	0.2998831272125244
42	116.7916111946106	ITI_window	5	-1	56	97	0.0	0.0	1.0	0.0	-1.0	0.0	0.0	-1.0	42.0	-1.0			122.40702700614929	0.9329648017883301
43	117.72457599639893	blockStart	0	-1	0	97	0.0	0.0	0.0	0.0	-1.0	0.0	0.0	-1.0	43.0	-1.0			123.33999180793762	0.004311084747314453
43	117.72888708114624	baseline_window	1	-1	29	97	0.0	0.0	0.0	0.0	-1.0	0.0	0.0	-1.0	43.0	-1.0			123.34430289268494	0.47905611991882324
43	118.20794320106506	stimulus_window	2	-1	12	97	0.0	0.0	0.0	0.0	-1.0	0.0	0.0	-1.0	43.0	-1.0			123.82335901260376	0.1998748779296875
43	118.40781807899475	response_window	3	-1	67	97	0.0	0.0	0.0	0.0	-1.0	0.0	0.0	-1.0	43.0	-1.0			124.02323389053345	1.1160569190979004
43	119.49673008918762	response	3	0	67						1.0			1.2887868881225586		1.0	a		125.11214590072632	
43	119.52387499809265	feedback_window	4	0	19	97	0.0	0.0	0.0	0.0	1.0	0.0	0.0		43.0	1.0		1.2887868881225586	125.13929080963135	0.31666016578674316
43	119.8405351638794	ITI_window	5	0	50	97	0.0	0.0	0.0	0.0	1.0	0.0	0.0		43.0	1.0		1.2887868881225586	125.45595097541809	0.8330390453338623
44	120.67357420921326	blockStart	0	-1	0	97	0.0	0.0	1.0	0.0	-1.0	0.0	0.0	-1.0	44.0	-1.0			126.28899002075195	0.004391908645629883
44	120.67796611785889	baseline_window	1	-1	30	97	0.0	0.0	1.0	0.0	-1.0	0.0	0.0	-1.0	44.0	-1.0			126.29338192939758	0.4955620765686035
44	121.17352819442749	stimulus_window	2	-1	12	97	0.0	0.0	1.0	0.0	-1.0	0.0	0.0	-1.0	44.0	-1.0			126.78894400596619	0.19979000091552734
44	121.37331819534302	response_window	3	-1	58	97	0.0	0.0	1.0	0.0	-1.0	0.0	0.0	-1.0	44.0	-1.0			126.98873400688171	0.9664018154144287
44	122.31248617172241	response	3	0	58						1.0			1.1389579772949219		1.0	a		127.92790198326111	
44	122.33972001075745	feedback_window	4	0	19	97	0.0	0.0	1.0	0.0	1.0	0.0	0.0		44.0	1.0		1.1389579772949219	127.95513582229614	0.3166921138763428
44	122.65641212463379	ITI_window	5	0	53	97	0.0	0.0	1.0	0.0	1.0	0.0	0.0		44.0	1.0		1.1389579772949219	128.27182793617249	0.8829700946807861
45	123.53938221931458	blockStart	0	-1	0	97	0.0	0.0	1.0	0.0	-1.0	0.0	0.0	-1.0	45.0	-1.0			129.15479803085327	0.004490852355957031
45	123.54387307167053	baseline_window	1	-1	30	97	0.0	0.0	1.0	0.0	-1.0	0.0	0.0	-1.0	45.0	-1.0			129.15928888320923	0.49536895751953125
45	124.03924202919006	stimulus_window	2	-1	12	97	0.0	0.0	1.0	0.0	-1.0	0.0	0.0	-1.0	45.0	-1.0			129.65465784072876	0.19997715950012207
45	124.23921918869019	response_window	3	-1	38	97	0.0	0.0	1.0	0.0	-1.0	0.0	0.0	-1.0	45.0	-1.0			129.85463500022888	0.6330339908599854
45	124.84535813331604	response	3	0	38						1.0			0.8061161041259766		0.0	s		130.46077394485474	
45	124.87225317955017	feedback_window	4	0	19	97	0.0	0.0	1.0	0.0	1.0	0.0	0.0	0.8061161041259766	45.0	0.0			130.48766899108887	0.31682682037353516
45	125.1890799999237	ITI_window	5	0	55	97	0.0	0.0	1.0	0.0	1.0	0.0	0.0	0.8061161041259766	45.0	0.0			130.8044958114624	0.9161200523376465
46	126.10520005226135	blockStart	0	-1	0	97	0.0	1.0	1.0	0.05	-1.0	0.0	0.0	-1.0	46.0	-1.0			131.72061586380005	0.0035800933837890625
46	126.10878014564514	baseline_window	1	-1	30	97	0.0	1.0	1.0	0.05	-1.0	0.0	0.0	-1.0	46.0	-1.0			131.72419595718384	0.4965698719024658
46	126.60535001754761	stimulus_window	2	-1	12	97	0.0	1.0	1.0	0.05	-1.0	0.0	0.0	-1.0	46.0	-1.0			132.2207658290863	0.1996932029724121
46	126.80504322052002	response_window	3	-1	27	97	0.0	1.0	1.0	0.05	-1.0	0.0	0.0	-1.0	46.0	-1.0			132.42045903205872	0.4497950077056885
46	127.22744607925415	response	3	1	27						1.0			0.622096061706543		1.0	l		132.84286189079285	
46	127.25483822822571	feedback_window	4	1	19	97	0.0	1.0	1.0	0.05	1.0	0.0	0.0	0.622096061706543	46.0	1.0			132.8702540397644	0.31632089614868164
46	127.57115912437439	ITI_window	5	1	59	97	0.0	1.0	1.0	0.05	1.0	0.0	0.0	0.622096061706543	46.0	1.0			133.1865749359131	0.9832949638366699
47	128.55445408821106	blockStart	0	-1	0	97	0.0	1.0	1.0	0.025000000000000005	-1.0	0.0	0.0	-1.0	47.0	-1.0			134.16986989974976	0.004141092300415039
47	128.55859518051147	baseline_window	1	-1	30	97	0.0	1.0	1.0	0.025000000000000005	-1.0	0.0	0.0	-1.0	47.0	-1.0			134.17401099205017	0.49559998512268066
47	129.05419516563416	stimulus_window	2	-1	12	97	0.0	1.0	1.0	0.025000000000000005	-1.0	0.0	0.0	-1.0	47.0	-1.0			134.66961097717285	0.19997191429138184
47	129.25416707992554	response_window	3	-1	22	97	0.0	1.0	1.0	0.025000000000000005	-1.0	0.0	0.0	-1.0	47.0	-1.0			134.86958289146423	0.36623311042785645
47	129.5931510925293	response	3	1	22						1.0			0.5389559268951416		1.0	l		135.208566904068	
47	129.6204001903534	feedback_window	4	1	19	97	0.0	1.0	1.0	0.025000000000000005	1.0	0.0	0.0	0.5389559268951416	47.0	1.0			135.2358160018921	0.3171098232269287
47	129.93751001358032	ITI_window	5	1	56	97	0.0	1.0	1.0	0.025000000000000005	1.0	0.0	0.0	0.5389559268951416	47.0	1.0			135.55292582511902	0.9327859878540039
48	130.87029600143433	blockStart	0	-1	0	97	0.0	1.0	1.0	0.020000000000000004	-1.0	0.0	0.0	-1.0	48.0	-1.0			136.48571181297302	0.004386186599731445
48	130.87468218803406	baseline_window	1	-1	30	97	0.0	1.0	1.0	0.020000000000000004	-1.0	0.0	0.0	-1.0	48.0	-1.0			136.49009799957275	0.49559497833251953
48	131.37027716636658	stimulus_window	2	-1	12	97	0.0	1.0	1.0	0.020000000000000004	-1.0	0.0	0.0	-1.0	48.0	-1.0			136.98569297790527	0.19969987869262695
48	131.5699770450592	response_window	3	-1	21	97	0.0	1.0	1.0	0.020000000000000004	-1.0	0.0	0.0	-1.0	48.0	-1.0			137.1853928565979	0.35004401206970215
48	131.89264702796936	response	3	1	21						1.0			0.5223698616027832		1.0	l		137.50806283950806	
48	131.9200210571289	feedback_window	4	1	19	97	0.0	1.0	1.0	0.020000000000000004	1.0	0.0	0.0	0.5223698616027832	48.0	1.0			137.5354368686676	0.31673407554626465
48	132.23675513267517	ITI_window	5	1	48	97	0.0	1.0	1.0	0.020000000000000004	1.0	0.0	0.0	0.5223698616027832	48.0	1.0			137.85217094421387	0.7992889881134033
49	133.03604412078857	blockStart	0	-1	0	97	0.0	0.0	1.0	0.0	-1.0	0.0	0.0	-1.0	49.0	-1.0			138.65145993232727	0.003050088882446289
49	133.03909420967102	baseline_window	1	-1	29	97	0.0	0.0	1.0	0.0	-1.0	0.0	0.0	-1.0	49.0	-1.0			138.65451002120972	0.4804518222808838
49	133.5195460319519	stimulus_window	2	-1	12	97	0.0	0.0	1.0	0.0	-1.0	0.0	0.0	-1.0	49.0	-1.0			139.1349618434906	0.20001006126403809
49	133.71955609321594	response_window	3	-1	29	97	0.0	0.0	1.0	0.0	-1.0	0.0	0.0	-1.0	49.0	-1.0			139.33497190475464	0.4829740524291992
49	134.17531609535217	response	3	0	29						1.0			0.6557700634002686		0.0	s		139.79073190689087	
49	134.20253014564514	feedback_window	4	0	19	97	0.0	0.0	1.0	0.0	1.0	0.0	0.0	0.6557700634002686	49.0	0.0			139.81794595718384	0.31683897972106934
49	134.5193691253662	ITI_window	5	0	59	97	0.0	0.0	1.0	0.0	1.0	0.0	0.0	0.6557700634002686	49.0	0.0			140.1347849369049	0.9826030731201172
50	135.50197219848633	blockStart	0	-1	0	97	0.0	1.0	0.0	0.015000000000000003	-1.0	0.0	0.0	-1.0	50.0	-1.0			141.11738801002502	0.0046999454498291016
50	135.50667214393616	baseline_window	1	-1	30	97	0.0	1.0	0.0	0.015000000000000003	-1.0	0.0	0.0	-1.0	50.0	-1.0			141.12208795547485	0.4955458641052246
50	136.00221800804138	stimulus_window	2	-1	12	97	0.0	1.0	0.0	0.015000000000000003	-1.0	0.0	0.0	-1.0	50.0	-1.0			141.61763381958008	0.19962120056152344
50	136.2018392086029	response_window	3	-1	29	97	0.0	1.0	0.0	0.015000000000000003	-1.0	0.0	0.0	-1.0	50.0	-1.0			141.8172550201416	0.4832279682159424
50	136.65849018096924	response	3	1	29						1.0			0.6562721729278564		0.0	k		142.27390599250793	
50	136.68506717681885	feedback_window	4	1	19	97	0.0	1.0	0.0	0.015000000000000003	1.0	0.0	0.0	0.6562721729278564	50.0	0.0			142.30048298835754	0.31649184226989746
50	137.00155901908875	ITI_window	5	1	46	97	0.0	1.0	0.0	0.015000000000000003	1.0	0.0	0.0	0.6562721729278564	50.0	0.0			142.61697483062744	0.7665581703186035
51	137.76811718940735	blockStart	0	-1	0	97	0.0	1.0	0.0	0.035	-1.0	0.0	0.0	-1.0	51.0	-1.0			143.38353300094604	0.0039958953857421875
51	137.7721130847931	baseline_window	1	-1	30	97	0.0	1.0	0.0	0.035	-1.0	0.0	0.0	-1.0	51.0	-1.0			143.3875288963318	0.4958770275115967
51	138.2679901123047	stimulus_window	2	-1	12	97	0.0	1.0	0.0	0.035	-1.0	0.0	0.0	-1.0	51.0	-1.0			143.88340592384338	0.19980788230895996
51	138.46779799461365	response_window	3	-1	30	97	0.0	1.0	0.0	0.035	-1.0	0.0	0.0	-1.0	51.0	-1.0			144.08321380615234	0.49977803230285645
51	138.94019722938538	response	3	1	30						1.0			0.6722071170806885		0.0	k		144.55561304092407	
51	138.9675760269165	feedback_window	4	1	19	97	0.0	1.0	0.0	0.035	1.0	0.0	0.0	0.6722071170806885	51.0	0.0			144.5829918384552	0.31682300567626953
51	139.28439903259277	ITI_window	5	1	58	97	0.0	1.0	0.0	0.035	1.0	0.0	0.0	0.6722071170806885	51.0	0.0			144.89981484413147	0.9657399654388428
52	140.25013899803162	blockStart	0	-1	0	97	0.0	0.0	0.0	0.0	-1.0	0.0	0.0	-1.0	52.0	-1.0			145.8655548095703	0.003603219985961914
52	140.25374221801758	baseline_window	1	-1	29	97	0.0	0.0	0.0	0.0	-1.0	0.0	0.0	-1.0	52.0	-1.0			145.86915802955627	0.479860782623291
52	140.73360300064087	stimulus_window	2	-1	12	97	0.0	0.0	0.0	0.0	-1.0	0.0	0.0	-1.0	52.0	-1.0			146.34901881217957	0.19994807243347168
52	140.93355107307434	response_window	3	-1	43	97	0.0	0.0	0.0	0.0	-1.0	0.0	0.0	-1.0	52.0	-1.0			146.54896688461304	0.7163491249084473
52	141.62269020080566	response	3	0	43						1.0			0.8890872001647949		0.0	s		147.23810601234436	
52	141.6499001979828	feedback_window	4	0	19	97	0.0	0.0	0.0	0.0	1.0	0.0	0.0	0.8890872001647949	52.0	0.0			147.26531600952148	0.3167757987976074
52	141.9666759967804	ITI_window	5	0	40	97	0.0	0.0	0.0	0.0	1.0	0.0	0.0	0.8890872001647949	52.0	0.0			147.5820918083191	0.666215181350708
53	142.6328911781311	blockStart	0	-1	0	97	0.0	1.0	0.0	0.05	-1.0	0.0	0.0	-1.0	53.0	-1.0			148.2483069896698	0.004127025604248047
53	142.63701820373535	baseline_window	1	-1	29	97	0.0	1.0	0.0	0.05	-1.0	0.0	0.0	-1.0	53.0	-1.0			148.25243401527405	0.4793670177459717
53	143.11638522148132	stimulus_window	2	-1	12	97	0.0	1.0	0.0	0.05	-1.0	0.0	0.0	-1.0	53.0	-1.0			148.73180103302002	0.19995498657226562
53	143.3163402080536	response_window	3	-1	36	97	0.0	1.0	0.0	0.05	-1.0	0.0	0.0	-1.0	53.0	-1.0			148.93175601959229	0.5996649265289307
53	143.888090133667	response	3	1	36						1.0			0.771704912185669		0.0	k		149.5035059452057	
53	143.91600513458252	feedback_window	4	1	19	97	0.0	1.0	0.0	0.05	1.0	0.0	0.0	0.771704912185669	53.0	0.0			149.53142094612122	0.31647586822509766
53	144.23248100280762	ITI_window	5	1	47	97	0.0	1.0	0.0	0.05	1.0	0.0	0.0	0.771704912185669	53.0	0.0			149.8478968143463	0.783196210861206
54	145.01567721366882	blockStart	0	-1	0	97	0.0	0.0	0.0	0.0	-1.0	0.0	0.0	-1.0	54.0	-1.0			150.63109302520752	0.00423884391784668
54	145.01991605758667	baseline_window	1	-1	30	97	0.0	0.0	0.0	0.0	-1.0	0.0	0.0	-1.0	54.0	-1.0			150.63533186912537	0.4956400394439697
54	145.51555609703064	stimulus_window	2	-1	12	97	0.0	0.0	0.0	0.0	-1.0	0.0	0.0	-1.0	54.0	-1.0			151.13097190856934	0.20001792907714844
54	145.7155740261078	response_window	3	-1	42	97	0.0	0.0	0.0	0.0	-1.0	0.0	0.0	-1.0	54.0	-1.0			151.33098983764648	0.6995501518249512
54	146.38806009292603	response	3	0	42						1.0			0.8725039958953857		1.0	a		152.00347590446472	
54	146.41512417793274	feedback_window	4	0	19	97	0.0	0.0	0.0	0.0	1.0	0.0	0.0		54.0	1.0		0.8725039958953857	152.03053998947144	0.31675195693969727
54	146.73187613487244	ITI_window	5	0	54	97	0.0	0.0	0.0	0.0	1.0	0.0	0.0		54.0	1.0		0.8725039958953857	152.34729194641113	0.8997020721435547
55	147.631578207016	blockStart	0	-1	0	97	0.0	1.0	1.0	0.045000000000000005	-1.0	0.0	0.0	-1.0	55.0	-1.0			153.2469940185547	0.004161834716796875
55	147.6357400417328	baseline_window	1	-1	29	97	0.0	1.0	1.0	0.045000000000000005	-1.0	0.0	0.0	-1.0	55.0	-1.0			153.25115585327148	0.4790041446685791
55	148.11474418640137	stimulus_window	2	-1	12	97	0.0	1.0	1.0	0.045000000000000005	-1.0	0.0	0.0	-1.0	55.0	-1.0			153.73015999794006	0.19973087310791016
55	148.31447505950928	response_window	3	-1	32	97	0.0	1.0	1.0	0.045000000000000005	-1.0	0.0	0.0	-1.0	55.0	-1.0			153.92989087104797	0.5331439971923828
55	148.8206651210785	response	3	1	32						1.0			0.705920934677124		1.0	l		154.4360809326172	
55	148.84761905670166	feedback_window	4	1	19	97	0.0	1.0	1.0	0.045000000000000005	1.0	0.0	0.0	0.705920934677124	55.0	1.0			154.46303486824036	0.31656599044799805
55	149.16418504714966	ITI_window	5	1	55	97	0.0	1.0	1.0	0.045000000000000005	1.0	0.0	0.0	0.705920934677124	55.0	1.0			154.77960085868835	0.9164631366729736
56	150.08064818382263	blockStart	0	-1	0	97	0.0	1.0	0.0	0.005	-1.0	0.0	0.0	-1.0	56.0	-1.0			155.69606399536133	0.003476858139038086
56	150.08412504196167	baseline_window	1	-1	30	97	0.0	1.0	0.0	0.005	-1.0	0.0	0.0	-1.0	56.0	-1.0			155.69954085350037	0.496351957321167
56	150.58047699928284	stimulus_window	2	-1	12	97	0.0	1.0	0.0	0.005	-1.0	0.0	0.0	-1.0	56.0	-1.0			156.19589281082153	0.1999671459197998
56	150.78044414520264	response_window	3	-1	32	97	0.0	1.0	0.0	0.005	-1.0	0.0	0.0	-1.0	56.0	-1.0			156.39585995674133	0.5330650806427002
56	151.28536415100098	response	3	0	32						0.0			0.7048871517181396		0.0	s		156.90077996253967	
56	151.31350922584534	feedback_window	4	0	19	97	0.0	1.0	0.0	0.005	0.0	0.0	0.0	0.7048871517181396	56.0	0.0			156.92892503738403	0.3166639804840088
56	151.63017320632935	ITI_window	5	0	42	97	0.0	1.0	0.0	0.005	0.0	0.0	0.0	0.7048871517181396	56.0	0.0			157.24558901786804	0.6996109485626221
57	152.32978415489197	blockStart	0	-1	0	97	0.0	1.0	1.0	0.015000000000000003	-1.0	0.0	0.0	-1.0	57.0	-1.0			157.94519996643066	0.0035028457641601562
57	152.33328700065613	baseline_window	1	-1	29	97	0.0	1.0	1.0	0.015000000000000003	-1.0	0.0	0.0	-1.0	57.0	-1.0			157.94870281219482	0.4797050952911377
57	152.81299209594727	stimulus_window	2	-1	12	97	0.0	1.0	1.0	0.015000000000000003	-1.0	0.0	0.0	-1.0	57.0	-1.0			158.42840790748596	0.20012903213500977
57	153.01312112808228	response_window	3	-1	71	97	0.0	1.0	1.0	0.015000000000000003	-1.0	0.0	0.0	-1.0	57.0	-1.0			158.62853693962097	1.1829140186309814
57	154.16910314559937	response	3	1	71						1.0			1.3561110496520996		0.0	k		159.78451895713806	
57	154.19603514671326	feedback_window	4	1	19	97	0.0	1.0	1.0	0.015000000000000003	1.0	0.0	0.0	1.3561110496520996	57.0	0.0			159.81145095825195	0.3161900043487549
57	154.512225151062	ITI_window	5	1	47	97	0.0	1.0	1.0	0.015000000000000003	1.0	0.0	0.0	1.3561110496520996	57.0	0.0			160.1276409626007	0.7834539413452148
58	155.29567909240723	blockStart	0	-1	0	97	0.0	0.0	0.0	0.0	-1.0	0.0	0.0	-1.0	58.0	-1.0			160.91109490394592	0.0032529830932617188
58	155.2989320755005	baseline_window	1	-1	29	97	0.0	0.0	0.0	0.0	-1.0	0.0	0.0	-1.0	58.0	-1.0			160.91434788703918	0.47988414764404297
58	155.77881622314453	stimulus_window	2	-1	12	97	0.0	0.0	0.0	0.0	-1.0	0.0	0.0	-1.0	58.0	-1.0			161.39423203468323	0.19997477531433105
58	155.97879099845886	response_window	3	-1	45	97	0.0	0.0	0.0	0.0	-1.0	0.0	0.0	-1.0	58.0	-1.0			161.59420680999756	0.7496461868286133
58	156.70124506950378	response	3	0	45						1.0			0.9224288463592529		0.0	s		162.31666088104248	
58	156.72843718528748	feedback_window	4	0	19	97	0.0	0.0	0.0	0.0	1.0	0.0	0.0	0.9224288463592529	58.0	0.0			162.34385299682617	0.3165769577026367
58	157.0450141429901	ITI_window	5	0	36	97	0.0	0.0	0.0	0.0	1.0	0.0	0.0	0.9224288463592529	58.0	0.0			162.6604299545288	0.5998530387878418
59	157.64486718177795	blockStart	0	-1	0	97	0.0	1.0	0.0	0.04	-1.0	0.0	0.0	-1.0	59.0	-1.0			163.26028299331665	0.0030088424682617188
59	157.64787602424622	baseline_window	1	-1	30	97	0.0	1.0	0.0	0.04	-1.0	0.0	0.0	-1.0	59.0	-1.0			163.2632918357849	0.4967460632324219
59	158.14462208747864	stimulus_window	2	-1	12	97	0.0	1.0	0.0	0.04	-1.0	0.0	0.0	-1.0	59.0	-1.0			163.76003789901733	0.19995999336242676
59	158.34458208084106	response_window	3	-1	30	97	0.0	1.0	0.0	0.04	-1.0	0.0	0.0	-1.0	59.0	-1.0			163.95999789237976	0.4998149871826172
59	158.81715512275696	response	3	1	30						1.0			0.6725330352783203		1.0	l		164.43257093429565	
59	158.84439706802368	feedback_window	4	1	19	97	0.0	1.0	0.0	0.04	1.0	0.0	0.0	0.6725330352783203	59.0	1.0			164.45981287956238	0.3166501522064209
59	159.1610472202301	ITI_window	5	1	51	97	0.0	1.0	0.0	0.04	1.0	0.0	0.0	0.6725330352783203	59.0	1.0			164.7764630317688	0.8492867946624756
60	160.01033401489258	blockStart	0	-1	0	97	0.0	1.0	0.0	0.045000000000000005	-1.0	0.0	0.0	-1.0	60.0	-1.0			165.62574982643127	0.003376007080078125
60	160.01371002197266	baseline_window	1	-1	29	97	0.0	1.0	0.0	0.045000000000000005	-1.0	0.0	0.0	-1.0	60.0	-1.0			165.62912583351135	0.4798731803894043
60	160.49358320236206	stimulus_window	2	-1	12	97	0.0	1.0	0.0	0.045000000000000005	-1.0	0.0	0.0	-1.0	60.0	-1.0			166.10899901390076	0.2001209259033203
60	160.69370412826538	response_window	3	-1	35	97	0.0	1.0	0.0	0.045000000000000005	-1.0	0.0	0.0	-1.0	60.0	-1.0			166.30911993980408	0.5832679271697998
60	161.24979901313782	response	3	1	35						1.0			0.7562158107757568		0.0	k		166.8652148246765	
60	161.27697205543518	feedback_window	4	1	19	97	0.0	1.0	0.0	0.045000000000000005	1.0	0.0	0.0	0.7562158107757568	60.0	0.0			166.89238786697388	0.3165161609649658
60	161.59348821640015	ITI_window	5	1	47	97	0.0	1.0	0.0	0.045000000000000005	1.0	0.0	0.0	0.7562158107757568	60.0	0.0			167.20890402793884	0.7830109596252441
61	162.3764991760254	blockStart	0	-1	0	97	0.0	0.0	1.0	0.0	-1.0	0.0	0.0	-1.0	61.0	-1.0			167.9919149875641	0.004293918609619141
61	162.380793094635	baseline_window	1	-1	30	97	0.0	0.0	1.0	0.0	-1.0	0.0	0.0	-1.0	61.0	-1.0			167.9962089061737	0.49556803703308105
61	162.8763611316681	stimulus_window	2	-1	12	97	0.0	0.0	1.0	0.0	-1.0	0.0	0.0	-1.0	61.0	-1.0			168.4917769432068	0.1999809741973877
61	163.07634210586548	response_window	3	-1	64	97	0.0	0.0	1.0	0.0	-1.0	0.0	0.0	-1.0	61.0	-1.0			168.69175791740417	1.0662178993225098
61	164.11556601524353	response	3	0	64						1.0			1.2392048835754395		1.0	a		169.73098182678223	
61	164.142560005188	feedback_window	4	0	19	97	0.0	0.0	1.0	0.0	1.0	0.0	0.0		61.0	1.0		1.2392048835754395	169.75797581672668	0.31673121452331543
61	164.4592912197113	ITI_window	5	0	53	97	0.0	0.0	1.0	0.0	1.0	0.0	0.0		61.0	1.0		1.2392048835754395	170.07470703125	0.8829770088195801
62	165.34226822853088	blockStart	0	-1	0	97	0.0	1.0	0.0	0.025000000000000005	-1.0	0.0	0.0	-1.0	62.0	-1.0			170.95768404006958	0.004411935806274414
62	165.34668016433716	baseline_window	1	-1	29	97	0.0	1.0	0.0	0.025000000000000005	-1.0	0.0	0.0	-1.0	62.0	-1.0			170.96209597587585	0.47859787940979004
62	165.82527804374695	stimulus_window	2	-1	12	97	0.0	1.0	0.0	0.025000000000000005	-1.0	0.0	0.0	-1.0	62.0	-1.0			171.44069385528564	0.20010113716125488
62	166.0253791809082	response_window	3	-1	42	97	0.0	1.0	0.0	0.025000000000000005	-1.0	0.0	0.0	-1.0	62.0	-1.0			171.6407949924469	0.6998119354248047
62	166.69778299331665	response	3	1	42						1.0			0.8725049495697021		0.0	k		172.31319880485535	
62	166.725191116333	feedback_window	4	1	19	97	0.0	1.0	0.0	0.025000000000000005	1.0	0.0	0.0	0.8725049495697021	62.0	0.0			172.3406069278717	0.31647706031799316
62	167.041668176651	ITI_window	5	1	44	97	0.0	1.0	0.0	0.025000000000000005	1.0	0.0	0.0	0.8725049495697021	62.0	0.0			172.6570839881897	0.7331268787384033
63	167.7747950553894	blockStart	0	-1	0	97	0.0	0.0	0.0	0.0	-1.0	0.0	0.0	-1.0	63.0	-1.0			173.3902108669281	0.004186153411865234
63	167.77898120880127	baseline_window	1	-1	29	97	0.0	0.0	0.0	0.0	-1.0	0.0	0.0	-1.0	63.0	-1.0			173.39439702033997	0.47901296615600586
63	168.25799417495728	stimulus_window	2	-1	12	97	0.0	0.0	0.0	0.0	-1.0	0.0	0.0	-1.0	63.0	-1.0			173.87340998649597	0.20005297660827637
63	168.45804715156555	response_window	3	-1	37	97	0.0	0.0	0.0	0.0	-1.0	0.0	0.0	-1.0	63.0	-1.0			174.07346296310425	0.6162948608398438
63	169.0458390712738	response	3	1	37						0.0			0.7878448963165283		1.0	l		174.6612548828125	
63	169.0743420124054	feedback_window	4	1	19	97	0.0	0.0	0.0	0.0	0.0	0.0	0.0	0.7878448963165283	63.0	1.0			174.6897578239441	0.31664514541625977
63	169.39098715782166	ITI_window	5	1	47	97	0.0	0.0	0.0	0.0	0.0	0.0	0.0	0.7878448963165283	63.0	1.0			175.00640296936035	0.7826669216156006
64	170.17365407943726	blockStart	0	-1	0	97	0.0	0.0	0.0	0.0	-1.0	0.0	0.0	-1.0	64.0	-1.0			175.78906989097595	0.004231929779052734
64	170.1778860092163	baseline_window	1	-1	29	97	0.0	0.0	0.0	0.0	-1.0	0.0	0.0	-1.0	64.0	-1.0			175.793301820755	0.47924304008483887
64	170.65712904930115	stimulus_window	2	-1	12	97	0.0	0.0	0.0	0.0	-1.0	0.0	0.0	-1.0	64.0	-1.0			176.27254486083984	0.19992709159851074
64	170.85705614089966	response_window	3	-1	50	97	0.0	0.0	0.0	0.0	-1.0	0.0	0.0	-1.0	64.0	-1.0			176.47247195243835	0.8330049514770508
64	171.66101622581482	response	3	0	50						1.0			1.0038871765136719		0.0	s		177.27643203735352	
64	171.6900610923767	feedback_window	4	0	19	97	0.0	0.0	0.0	0.0	1.0	0.0	0.0	1.0038871765136719	64.0	0.0			177.3054769039154	0.31667208671569824
64	172.0067331790924	ITI_window	5	0	56	97	0.0	0.0	0.0	0.0	1.0	0.0	0.0	1.0038871765136719	64.0	0.0			177.6221489906311	0.9330399036407471
65	172.93977308273315	blockStart	0	-1	0	97	0.0	0.0	1.0	0.0	-1.0	0.0	0.0	-1.0	65.0	-1.0			178.55518889427185	0.0033071041107177734
65	172.94308018684387	baseline_window	1	-1	29	97	0.0	0.0	1.0	0.0	-1.0	0.0	0.0	-1.0	65.0	-1.0			178.55849599838257	0.4799308776855469
65	173.42301106452942	stimulus_window	2	-1	12	97	0.0	0.0	1.0	0.0	-1.0	0.0	0.0	-1.0	65.0	-1.0			179.03842687606812	0.19989800453186035
65	173.62290906906128	response_window	3	-1	72	97	0.0	0.0	1.0	0.0	-1.0	0.0	0.0	-1.0	65.0	-1.0			179.23832488059998	1.199625015258789
65	174.82253408432007	feedback_window	4	-1	18	97	0.0	0.0	1.0	0.0	-1.0	0.0	0.0	-1.0	65.0	-1.0			180.43794989585876	0.299907922744751
65	175.12244200706482	ITI_window	5	-1	45	97	0.0	0.0	1.0	0.0	-1.0	0.0	0.0	-1.0	65.0	-1.0			180.73785781860352	0.7492771148681641
66	175.87171912193298	blockStart	0	-1	0	97	0.0	1.0	1.0	0.05	-1.0	0.0	0.0	-1.0	66.0	-1.0			181.48713493347168	0.004416942596435547
66	175.87613606452942	baseline_window	1	-1	29	97	0.0	1.0	1.0	0.05	-1.0	0.0	0.0	-1.0	66.0	-1.0			181.49155187606812	0.47940611839294434
66	176.35554218292236	stimulus_window	2	-1	12	97	0.0	1.0	1.0	0.05	-1.0	0.0	0.0	-1.0	66.0	-1.0			181.97095799446106	0.19970703125
66	176.55524921417236	response_window	3	-1	33	97	0.0	1.0	1.0	0.05	-1.0	0.0	0.0	-1.0	66.0	-1.0			182.17066502571106	0.5497708320617676
66	177.0786120891571	response	3	1	33						1.0			0.7230699062347412		1.0	l		182.6940279006958	
66	177.10502004623413	feedback_window	4	1	19	97	0.0	1.0	1.0	0.05	1.0	0.0	0.0	0.7230699062347412	66.0	1.0			182.72043585777283	0.3165919780731201
66	177.42161202430725	ITI_window	5	1	44	97	0.0	1.0	1.0	0.05	1.0	0.0	0.0	0.7230699062347412	66.0	1.0			183.03702783584595	0.7330989837646484
67	178.1547110080719	blockStart	0	-1	0	97	0.0	1.0	0.0	0.010000000000000002	-1.0	0.0	0.0	-1.0	67.0	-1.0			183.7701268196106	0.0038640499114990234
67	178.1585750579834	baseline_window	1	-1	30	97	0.0	1.0	0.0	0.010000000000000002	-1.0	0.0	0.0	-1.0	67.0	-1.0			183.7739908695221	0.49596500396728516
67	178.65454006195068	stimulus_window	2	-1	12	97	0.0	1.0	0.0	0.010000000000000002	-1.0	0.0	0.0	-1.0	67.0	-1.0			184.26995587348938	0.19991302490234375
67	178.85445308685303	response_window	3	-1	55	97	0.0	1.0	0.0	0.010000000000000002	-1.0	0.0	0.0	-1.0	67.0	-1.0			184.46986889839172	0.9162580966949463
67	179.74428510665894	response	3	1	55						1.0			1.089745044708252		0.0	k		185.35970091819763	
67	179.77071118354797	feedback_window	4	1	19	97	0.0	1.0	0.0	0.010000000000000002	1.0	0.0	0.0	1.089745044708252	67.0	0.0			185.38612699508667	0.3166370391845703
67	180.08734822273254	ITI_window	5	1	58	97	0.0	1.0	0.0	0.010000000000000002	1.0	0.0	0.0	1.089745044708252	67.0	0.0			185.70276403427124	0.9663889408111572
68	181.0537371635437	blockStart	0	-1	0	97	0.0	1.0	0.0	0.045000000000000005	-1.0	0.0	0.0	-1.0	68.0	-1.0			186.6691529750824	0.004091024398803711
68	181.0578281879425	baseline_window	1	-1	29	97	0.0	1.0	0.0	0.045000000000000005	-1.0	0.0	0.0	-1.0	68.0	-1.0			186.6732439994812	0.47917985916137695
68	181.53700804710388	stimulus_window	2	-1	12	97	0.0	1.0	0.0	0.045000000000000005	-1.0	0.0	0.0	-1.0	68.0	-1.0			187.15242385864258	0.1999650001525879
68	181.73697304725647	response_window	3	-1	32	97	0.0	1.0	0.0	0.045000000000000005	-1.0	0.0	0.0	-1.0	68.0	-1.0			187.35238885879517	0.5330531597137451
68	182.24256420135498	response	3	1	32						1.0			0.7055561542510986		0.0	k		187.85798001289368	
68	182.27002620697021	feedback_window	4	1	19	97	0.0	1.0	0.0	0.045000000000000005	1.0	0.0	0.0	0.7055561542510986	68.0	0.0			187.8854420185089	0.3165898323059082
68	182.58661603927612	ITI_window	5	1	55	97	0.0	1.0	0.0	0.045000000000000005	1.0	0.0	0.0	0.7055561542510986	68.0	0.0			188.20203185081482	0.9163680076599121
69	183.50298404693604	blockStart	0	-1	0	97	0.0	1.0	0.0	0.04	-1.0	0.0	0.0	-1.0	69.0	-1.0			189.11839985847473	0.004413127899169922
69	183.5073971748352	baseline_window	1	-1	30	97	0.0	1.0	0.0	0.04	-1.0	0.0	0.0	-1.0	69.0	-1.0			189.1228129863739	0.4953038692474365
69	184.00270104408264	stimulus_window	2	-1	12	97	0.0	1.0	0.0	0.04	-1.0	0.0	0.0	-1.0	69.0	-1.0			189.61811685562134	0.1999201774597168
69	184.20262122154236	response_window	3	-1	29	97	0.0	1.0	0.0	0.04	-1.0	0.0	0.0	-1.0	69.0	-1.0			189.81803703308105	0.48314499855041504
69	184.65838408470154	response	3	1	29						1.0			0.6556830406188965		1.0	l		190.27379989624023	
69	184.68576622009277	feedback_window	4	1	19	97	0.0	1.0	0.0	0.04	1.0	0.0	0.0	0.6556830406188965	69.0	1.0			190.30118203163147	0.31655097007751465
69	185.0023171901703	ITI_window	5	1	56	97	0.0	1.0	0.0	0.04	1.0	0.0	0.0	0.6556830406188965	69.0	1.0			190.61773300170898	0.9329609870910645
70	185.93527817726135	blockStart	0	-1	0	97	0.0	0.0	0.0	0.0	-1.0	0.0	0.0	-1.0	70.0	-1.0			191.55069398880005	0.003926992416381836
70	185.93920516967773	baseline_window	1	-1	30	97	0.0	0.0	0.0	0.0	-1.0	0.0	0.0	-1.0	70.0	-1.0			191.55462098121643	0.496196985244751
70	186.43540215492249	stimulus_window	2	-1	12	97	0.0	0.0	0.0	0.0	-1.0	0.0	0.0	-1.0	70.0	-1.0			192.05081796646118	0.20000600814819336
70	186.63540816307068	response_window	3	-1	48	97	0.0	0.0	0.0	0.0	-1.0	0.0	0.0	-1.0	70.0	-1.0			192.25082397460938	0.799285888671875
70	187.40793013572693	response	3	0	48						1.0			0.9725279808044434		0.0	s		193.02334594726562	
70	187.43469405174255	feedback_window	4	0	19	97	0.0	0.0	0.0	0.0	1.0	0.0	0.0	0.9725279808044434	70.0	0.0			193.05010986328125	0.31682610511779785
70	187.75152015686035	ITI_window	5	0	39	97	0.0	0.0	0.0	0.0	1.0	0.0	0.0	0.9725279808044434	70.0	0.0			193.36693596839905	0.6497409343719482
71	188.4012610912323	blockStart	0	-1	0	97	0.0	0.0	1.0	0.0	-1.0	0.0	0.0	-1.0	71.0	-1.0			194.016676902771	0.003142118453979492
71	188.40440320968628	baseline_window	1	-1	29	97	0.0	0.0	1.0	0.0	-1.0	0.0	0.0	-1.0	71.0	-1.0			194.01981902122498	0.4800119400024414
71	188.88441514968872	stimulus_window	2	-1	12	97	0.0	0.0	1.0	0.0	-1.0	0.0	0.0	-1.0	71.0	-1.0			194.49983096122742	0.2000570297241211
71	189.08447217941284	response_window	3	-1	58	97	0.0	0.0	1.0	0.0	-1.0	0.0	0.0	-1.0	71.0	-1.0			194.69988799095154	0.9662559032440186
71	190.02381920814514	response	3	0	58						1.0			1.139404058456421		1.0	a		195.63923501968384	
71	190.05072808265686	feedback_window	4	0	19	97	0.0	0.0	1.0	0.0	1.0	0.0	0.0		71.0	1.0		1.139404058456421	195.66614389419556	0.31659603118896484
71	190.36732411384583	ITI_window	5	0	43	97	0.0	0.0	1.0	0.0	1.0	0.0	0.0		71.0	1.0		1.139404058456421	195.98273992538452	0.7164819240570068
72	191.08380603790283	blockStart	0	-1	0	97	0.0	0.0	0.0	0.0	-1.0	0.0	0.0	-1.0	72.0	-1.0			196.69922184944153	0.004125118255615234
72	191.08793115615845	baseline_window	1	-1	30	97	0.0	0.0	0.0	0.0	-1.0	0.0	0.0	-1.0	72.0	-1.0			196.70334696769714	0.49555301666259766
72	191.58348417282104	stimulus_window	2	-1	12	97	0.0	0.0	0.0	0.0	-1.0	0.0	0.0	-1.0	72.0	-1.0			197.19889998435974	0.1999058723449707
72	191.78339004516602	response_window	3	-1	65	97	0.0	0.0	0.0	0.0	-1.0	0.0	0.0	-1.0	72.0	-1.0			197.3988058567047	1.0830330848693848
72	192.83906316757202	response	3	0	65						1.0			1.2555789947509766		0.0	s		198.45447897911072	
72	192.8664231300354	feedback_window	4	0	19	97	0.0	0.0	0.0	0.0	1.0	0.0	0.0	1.2555789947509766	72.0	0.0			198.4818389415741	0.31650400161743164
72	193.18292713165283	ITI_window	5	0	50	97	0.0	0.0	0.0	0.0	1.0	0.0	0.0	1.2555789947509766	72.0	0.0			198.79834294319153	0.8330609798431396
73	194.01598811149597	blockStart	0	-1	0	97	0.0	1.0	1.0	0.010000000000000002	-1.0	0.0	0.0	-1.0	73.0	-1.0			199.63140392303467	0.003844022750854492
73	194.01983213424683	baseline_window	1	-1	29	97	0.0	1.0	1.0	0.010000000000000002	-1.0	0.0	0.0	-1.0	73.0	-1.0			199.63524794578552	0.47925686836242676
73	194.49908900260925	stimulus_window	2	-1	12	97	0.0	1.0	1.0	0.010000000000000002	-1.0	0.0	0.0	-1.0	73.0	-1.0			200.11450481414795	0.20023417472839355
73	194.69932317733765	response_window	3	-1	50	97	0.0	1.0	1.0	0.010000000000000002	-1.0	0.0	0.0	-1.0	73.0	-1.0			200.31473898887634	0.8330240249633789
73	195.50527501106262	response	3	0	50						0.0			1.0061860084533691		1.0	a		201.12069082260132	
73	195.53234720230103	feedback_window	4	0	19	97	0.0	1.0	1.0	0.010000000000000002	0.0	0.0	0.0		73.0	1.0		1.0061860084533691	201.14776301383972	0.316648006439209
73	195.84899520874023	ITI_window	5	0	39	97	0.0	1.0	1.0	0.010000000000000002	0.0	0.0	0.0		73.0	1.0		1.0061860084533691	201.46441102027893	0.6497838497161865
74	196.49877905845642	blockStart	0	-1	0	97	0.0	0.0	0.0	0.0	-1.0	0.0	0.0	-1.0	74.0	-1.0			202.11419486999512	0.0044651031494140625
74	196.50324416160583	baseline_window	1	-1	30	97	0.0	0.0	0.0	0.0	-1.0	0.0	0.0	-1.0	74.0	-1.0			202.11865997314453	0.4954249858856201
74	196.99866914749146	stimulus_window	2	-1	12	97	0.0	0.0	0.0	0.0	-1.0	0.0	0.0	-1.0	74.0	-1.0			202.61408495903015	0.19991302490234375
74	197.1985821723938	response_window	3	-1	48	97	0.0	0.0	0.0	0.0	-1.0	0.0	0.0	-1.0	74.0	-1.0			202.8139979839325	0.7994480133056641
74	197.97074508666992	response	3	0	48						1.0			0.9720759391784668		0.0	s		203.58616089820862	
74	197.99803018569946	feedback_window	4	0	19	97	0.0	0.0	0.0	0.0	1.0	0.0	0.0	0.9720759391784668	74.0	0.0			203.61344599723816	0.3167989253997803
74	198.31482911109924	ITI_window	5	0	50	97	0.0	0.0	0.0	0.0	1.0	0.0	0.0	0.9720759391784668	74.0	0.0			203.93024492263794	0.8328840732574463
75	199.1477131843567	blockStart	0	-1	0	97	0.0	0.0	1.0	0.0	-1.0	0.0	0.0	-1.0	75.0	-1.0			204.76312899589539	0.0043849945068359375
75	199.15209817886353	baseline_window	1	-1	29	97	0.0	0.0	1.0	0.0	-1.0	0.0	0.0	-1.0	75.0	-1.0			204.76751399040222	0.47900986671447754
75	199.631108045578	stimulus_window	2	-1	12	97	0.0	0.0	1.0	0.0	-1.0	0.0	0.0	-1.0	75.0	-1.0			205.2465238571167	0.19991612434387207
75	199.83102416992188	response_window	3	-1	23	97	0.0	0.0	1.0	0.0	-1.0	0.0	0.0	-1.0	75.0	-1.0			205.44643998146057	0.383012056350708
75	200.18599605560303	response	3	1	23						0.0			0.5548880100250244		0.0	k		205.80141186714172	
75	200.21403622627258	feedback_window	4	1	19	97	0.0	0.0	1.0	0.0	0.0	0.0	0.0	0.5548880100250244	75.0	0.0			205.82945203781128	0.31675100326538086
75	200.53078722953796	ITI_window	5	1	54	97	0.0	0.0	1.0	0.0	0.0	0.0	0.0	0.5548880100250244	75.0	0.0			206.14620304107666	0.8992288112640381
76	201.430016040802	blockStart	0	-1	0	97	0.0	1.0	0.0	0.015000000000000003	-1.0	0.0	0.0	-1.0	76.0	-1.0			207.0454318523407	0.004577159881591797
76	201.4345932006836	baseline_window	1	-1	29	97	0.0	1.0	0.0	0.015000000000000003	-1.0	0.0	0.0	-1.0	76.0	-1.0			207.0500090122223	0.4787938594818115
76	201.9133870601654	stimulus_window	2	-1	12	97	0.0	1.0	0.0	0.015000000000000003	-1.0	0.0	0.0	-1.0	76.0	-1.0			207.5288028717041	0.2000260353088379
76	202.11341309547424	response_window	3	-1	47	97	0.0	1.0	0.0	0.015000000000000003	-1.0	0.0	0.0	-1.0	76.0	-1.0			207.72882890701294	0.7831699848175049
76	202.8691771030426	response	3	1	47						1.0			0.9557900428771973		0.0	k		208.4845929145813	
76	202.89658308029175	feedback_window	4	1	19	97	0.0	1.0	0.0	0.015000000000000003	1.0	0.0	0.0	0.9557900428771973	76.0	0.0			208.51199889183044	0.3167901039123535
76	203.2133731842041	ITI_window	5	1	45	97	0.0	1.0	0.0	0.015000000000000003	1.0	0.0	0.0	0.9557900428771973	76.0	0.0			208.8287889957428	0.7494308948516846
77	203.9628040790558	blockStart	0	-1	0	97	0.0	0.0	0.0	0.0	-1.0	0.0	0.0	-1.0	77.0	-1.0			209.57821989059448	0.004379987716674805
77	203.96718406677246	baseline_window	1	-1	29	97	0.0	0.0	0.0	0.0	-1.0	0.0	0.0	-1.0	77.0	-1.0			209.58259987831116	0.4790821075439453
77	204.4462661743164	stimulus_window	2	-1	12	97	0.0	0.0	0.0	0.0	-1.0	0.0	0.0	-1.0	77.0	-1.0			210.0616819858551	0.19948792457580566
77	204.6457540988922	response_window	3	-1	49	97	0.0	0.0	0.0	0.0	-1.0	0.0	0.0	-1.0	77.0	-1.0			210.2611699104309	0.8164429664611816
77	205.43561005592346	response	3	0	49						1.0			0.9893438816070557		0.0	s		211.05102586746216	
77	205.4621970653534	feedback_window	4	0	19	97	0.0	0.0	0.0	0.0	1.0	0.0	0.0	0.9893438816070557	77.0	0.0			211.0776128768921	0.3167910575866699
77	205.77898812294006	ITI_window	5	0	59	97	0.0	0.0	0.0	0.0	1.0	0.0	0.0	0.9893438816070557	77.0	0.0			211.39440393447876	0.9827930927276611
78	206.76178121566772	blockStart	0	-1	0	97	0.0	0.0	0.0	0.0	-1.0	0.0	0.0	-1.0	78.0	-1.0			212.37719702720642	0.0042269229888916016
78	206.76600813865662	baseline_window	1	-1	29	97	0.0	0.0	0.0	0.0	-1.0	0.0	0.0	-1.0	78.0	-1.0			212.3814239501953	0.4791910648345947
78	207.2451992034912	stimulus_window	2	-1	12	97	0.0	0.0	0.0	0.0	-1.0	0.0	0.0	-1.0	78.0	-1.0			212.8606150150299	0.1996898651123047
78	207.44488906860352	response_window	3	-1	56	97	0.0	0.0	0.0	0.0	-1.0	0.0	0.0	-1.0	78.0	-1.0			213.0603048801422	0.932974100112915
78	208.3508231639862	response	3	1	56						0.0			1.1056239604949951		0.0	k		213.9662389755249	
78	208.37786316871643	feedback_window	4	1	19	97	0.0	0.0	0.0	0.0	0.0	0.0	0.0	1.1056239604949951	78.0	0.0			213.99327898025513	0.3169059753417969
78	208.69476914405823	ITI_window	5	1	37	97	0.0	0.0	0.0	0.0	0.0	0.0	0.0	1.1056239604949951	78.0	0.0			214.31018495559692	0.6160860061645508
79	209.31085515022278	blockStart	0	-1	0	97	0.0	0.0	0.0	0.0	-1.0	0.0	0.0	-1.0	79.0	-1.0			214.92627096176147	0.004884004592895508
79	209.31573915481567	baseline_window	1	-1	30	97	0.0	0.0	0.0	0.0	-1.0	0.0	0.0	-1.0	79.0	-1.0			214.93115496635437	0.4951210021972656
79	209.81086015701294	stimulus_window	2	-1	12	97	0.0	0.0	0.0	0.0	-1.0	0.0	0.0	-1.0	79.0	-1.0			215.42627596855164	0.19991087913513184
79	210.01077103614807	response_window	3	-1	46	97	0.0	0.0	0.0	0.0	-1.0	0.0	0.0	-1.0	79.0	-1.0			215.62618684768677	0.7664451599121094
79	210.75176906585693	response	3	0	46						1.0			0.9409089088439941		0.0	s		216.36718487739563	
79	210.77721619606018	feedback_window	4	0	19	97	0.0	0.0	0.0	0.0	1.0	0.0	0.0	0.9409089088439941	79.0	0.0			216.39263200759888	0.31665492057800293
79	211.09387111663818	ITI_window	5	0	45	97	0.0	0.0	0.0	0.0	1.0	0.0	0.0	0.9409089088439941	79.0	0.0			216.70928692817688	0.7499020099639893
80	211.84377312660217	blockStart	0	-1	0	97	0.0	0.0	0.0	0.0	-1.0	0.0	0.0	-1.0	80.0	-1.0			217.45918893814087	0.004316091537475586
80	211.84808921813965	baseline_window	1	-1	30	97	0.0	0.0	0.0	0.0	-1.0	0.0	0.0	-1.0	80.0	-1.0			217.46350502967834	0.49533891677856445
80	212.3434281349182	stimulus_window	2	-1	12	97	0.0	0.0	0.0	0.0	-1.0	0.0	0.0	-1.0	80.0	-1.0			217.9588439464569	0.19986295700073242
80	212.54329109191895	response_window	3	-1	60	97	0.0	0.0	0.0	0.0	-1.0	0.0	0.0	-1.0	80.0	-1.0			218.15870690345764	0.9997260570526123
80	213.5161771774292	response	3	0	60						1.0			1.1727490425109863		1.0	a		219.1315929889679	
80	213.54301714897156	feedback_window	4	0	19	97	0.0	0.0	0.0	0.0	1.0	0.0	0.0		80.0	1.0		1.1727490425109863	219.15843296051025	0.31690001487731934
80	213.85991716384888	ITI_window	5	0	58	97	0.0	0.0	0.0	0.0	1.0	0.0	0.0		80.0	1.0		1.1727490425109863	219.47533297538757	0.9659030437469482
81	214.82582020759583	blockStart	0	-1	0	97	0.0	0.0	0.0	0.0	-1.0	0.0	0.0	-1.0	81.0	-1.0			220.44123601913452	0.0037338733673095703
81	214.82955408096313	baseline_window	1	-1	30	97	0.0	0.0	0.0	0.0	-1.0	0.0	0.0	-1.0	81.0	-1.0			220.44496989250183	0.4961061477661133
81	215.32566022872925	stimulus_window	2	-1	12	97	0.0	0.0	0.0	0.0	-1.0	0.0	0.0	-1.0	81.0	-1.0			220.94107604026794	0.19983386993408203
81	215.52549409866333	response_window	3	-1	36	97	0.0	0.0	0.0	0.0	-1.0	0.0	0.0	-1.0	81.0	-1.0			221.14090991020203	0.5998790264129639
81	216.09807705879211	response	3	0	36						1.0			0.7724168300628662		0.0	s		221.7134928703308	
81	216.1253731250763	feedback_window	4	0	19	97	0.0	0.0	0.0	0.0	1.0	0.0	0.0	0.7724168300628662	81.0	0.0			221.740788936615	0.316802978515625
81	216.44217610359192	ITI_window	5	0	57	97	0.0	0.0	0.0	0.0	1.0	0.0	0.0	0.7724168300628662	81.0	0.0			222.05759191513062	0.9496090412139893
82	217.3917851448059	blockStart	0	-1	0	97	0.0	1.0	1.0	0.030000000000000006	-1.0	0.0	0.0	-1.0	82.0	-1.0			223.0072009563446	0.0037620067596435547
82	217.39554715156555	baseline_window	1	-1	29	97	0.0	1.0	1.0	0.030000000000000006	-1.0	0.0	0.0	-1.0	82.0	-1.0			223.01096296310425	0.47956085205078125
82	217.87510800361633	stimulus_window	2	-1	12	97	0.0	1.0	1.0	0.030000000000000006	-1.0	0.0	0.0	-1.0	82.0	-1.0			223.49052381515503	0.19997906684875488
82	218.0750870704651	response_window	3	-1	47	97	0.0	1.0	1.0	0.030000000000000006	-1.0	0.0	0.0	-1.0	82.0	-1.0			223.69050288200378	0.7827029228210449
82	218.83019304275513	response	3	1	47						1.0			0.955085039138794		1.0	l		224.44560885429382	
82	218.85778999328613	feedback_window	4	1	19	97	0.0	1.0	1.0	0.030000000000000006	1.0	0.0	0.0	0.955085039138794	82.0	1.0			224.47320580482483	0.3166821002960205
82	219.17447209358215	ITI_window	5	1	44	97	0.0	1.0	1.0	0.030000000000000006	1.0	0.0	0.0	0.955085039138794	82.0	1.0			224.78988790512085	0.7330789566040039
83	219.90755105018616	blockStart	0	-1	0	97	0.0	1.0	1.0	0.005	-1.0	0.0	0.0	-1.0	83.0	-1.0			225.52296686172485	0.004205942153930664
83	219.9117569923401	baseline_window	1	-1	29	97	0.0	1.0	1.0	0.005	-1.0	0.0	0.0	-1.0	83.0	-1.0			225.52717280387878	0.4791581630706787
83	220.39091515541077	stimulus_window	2	-1	12	97	0.0	1.0	1.0	0.005	-1.0	0.0	0.0	-1.0	83.0	-1.0			226.00633096694946	0.19957304000854492
83	220.5904881954193	response_window	3	-1	47	97	0.0	1.0	1.0	0.005	-1.0	0.0	0.0	-1.0	83.0	-1.0			226.205904006958	0.7831289768218994
83	221.34693717956543	response	3	0	47						0.0			0.9560220241546631		1.0	a		226.96235299110413	
83	221.3736171722412	feedback_window	4	0	19	97	0.0	1.0	1.0	0.005	0.0	0.0	0.0		83.0	1.0		0.9560220241546631	226.9890329837799	0.316709041595459
83	221.69032621383667	ITI_window	5	0	52	97	0.0	1.0	1.0	0.005	0.0	0.0	0.0		83.0	1.0		0.9560220241546631	227.30574202537537	0.8660898208618164
84	222.5564160346985	blockStart	0	-1	0	97	0.0	0.0	0.0	0.0	-1.0	0.0	0.0	-1.0	84.0	-1.0			228.17183184623718	0.005048036575317383
84	222.5614640712738	baseline_window	1	-1	29	97	0.0	0.0	0.0	0.0	-1.0	0.0	0.0	-1.0	84.0	-1.0			228.1768798828125	0.4785430431365967
84	223.0400071144104	stimulus_window	2	-1	12	97	0.0	0.0	0.0	0.0	-1.0	0.0	0.0	-1.0	84.0	-1.0			228.6554229259491	0.19983792304992676
84	223.23984503746033	response_window	3	-1	43	97	0.0	0.0	0.0	0.0	-1.0	0.0	0.0	-1.0	84.0	-1.0			228.85526084899902	0.7164340019226074
84	223.93109512329102	response	3	0	43						1.0			0.8910880088806152		0.0	s		229.5465109348297	
84	223.95627903938293	feedback_window	4	0	19	97	0.0	0.0	0.0	0.0	1.0	0.0	0.0	0.8910880088806152	84.0	0.0			229.57169485092163	0.31661510467529297
84	224.27289414405823	ITI_window	5	0	38	97	0.0	0.0	0.0	0.0	1.0	0.0	0.0	0.8910880088806152	84.0	0.0			229.88830995559692	0.6328740119934082
85	224.90576815605164	blockStart	0	-1	0	97	0.0	0.0	1.0	0.0	-1.0	0.0	0.0	-1.0	85.0	-1.0			230.52118396759033	0.004282951354980469
85	224.91005110740662	baseline_window	1	-1	29	97	0.0	0.0	1.0	0.0	-1.0	0.0	0.0	-1.0	85.0	-1.0			230.5254669189453	0.4790220260620117
85	225.38907313346863	stimulus_window	2	-1	12	97	0.0	0.0	1.0	0.0	-1.0	0.0	0.0	-1.0	85.0	-1.0			231.00448894500732	0.1999809741973877
85	225.58905410766602	response_window	3	-1	60	97	0.0	0.0	1.0	0.0	-1.0	0.0	0.0	-1.0	85.0	-1.0			231.2044699192047	0.9996860027313232
85	226.5607841014862	response	3	0	60						1.0			1.1717109680175781		0.0	s		232.1761999130249	
85	226.58874011039734	feedback_window	4	0	19	97	0.0	0.0	1.0	0.0	1.0	0.0	0.0	1.1717109680175781	85.0	0.0			232.20415592193604	0.31648802757263184
85	226.90522813796997	ITI_window	5	0	58	97	0.0	0.0	1.0	0.0	1.0	0.0	0.0	1.1717109680175781	85.0	0.0			232.52064394950867	0.9661760330200195
86	227.87140417099	blockStart	0	-1	0	97	0.0	1.0	0.0	0.005	-1.0	0.0	0.0	-1.0	86.0	-1.0			233.4868199825287	0.0040378570556640625
86	227.87544202804565	baseline_window	1	-1	29	97	0.0	1.0	0.0	0.005	-1.0	0.0	0.0	-1.0	86.0	-1.0			233.49085783958435	0.47942209243774414
86	228.3548641204834	stimulus_window	2	-1	12	97	0.0	1.0	0.0	0.005	-1.0	0.0	0.0	-1.0	86.0	-1.0			233.9702799320221	0.19998788833618164
86	228.55485200881958	response_window	3	-1	32	97	0.0	1.0	0.0	0.005	-1.0	0.0	0.0	-1.0	86.0	-1.0			234.17026782035828	0.5331630706787109
86	229.06030821800232	response	3	1	32						1.0			0.7054440975189209		0.0	k		234.67572402954102	
86	229.0880150794983	feedback_window	4	1	19	97	0.0	1.0	0.0	0.005	1.0	0.0	0.0	0.7054440975189209	86.0	0.0			234.703430891037	0.3164670467376709
86	229.40448212623596	ITI_window	5	1	37	97	0.0	1.0	0.0	0.005	1.0	0.0	0.0	0.7054440975189209	86.0	0.0			235.01989793777466	0.6165108680725098
87	230.02099299430847	blockStart	0	-1	0	97	0.0	1.0	0.0	0.005	-1.0	0.0	0.0	-1.0	87.0	-1.0			235.63640880584717	0.003709077835083008
87	230.02470207214355	baseline_window	1	-1	30	97	0.0	1.0	0.0	0.005	-1.0	0.0	0.0	-1.0	87.0	-1.0			235.64011788368225	0.49624204635620117
87	230.52094411849976	stimulus_window	2	-1	12	97	0.0	1.0	0.0	0.005	-1.0	0.0	0.0	-1.0	87.0	-1.0			236.13635993003845	0.1998279094696045
87	230.72077202796936	response_window	3	-1	47	97	0.0	1.0	0.0	0.005	-1.0	0.0	0.0	-1.0	87.0	-1.0			236.33618783950806	0.7829301357269287
87	231.47637701034546	response	3	1	47						1.0			0.9554328918457031		0.0	k		237.09179282188416	
87	231.5037021636963	feedback_window	4	1	19	97	0.0	1.0	0.0	0.005	1.0	0.0	0.0	0.9554328918457031	87.0	0.0			237.11911797523499	0.31682801246643066
87	231.82053017616272	ITI_window	5	1	46	97	0.0	1.0	0.0	0.005	1.0	0.0	0.0	0.9554328918457031	87.0	0.0			237.43594598770142	0.7659690380096436
88	232.58649921417236	blockStart	0	-1	0	97	0.0	1.0	0.0	0.010000000000000002	-1.0	0.0	0.0	-1.0	88.0	-1.0			238.20191502571106	0.0044019222259521484
88	232.59090113639832	baseline_window	1	-1	30	97	0.0	1.0	0.0	0.010000000000000002	-1.0	0.0	0.0	-1.0	88.0	-1.0			238.206316947937	0.4958219528198242
88	233.08672308921814	stimulus_window	2	-1	12	97	0.0	1.0	0.0	0.010000000000000002	-1.0	0.0	0.0	-1.0	88.0	-1.0			238.70213890075684	0.1999509334564209
88	233.28667402267456	response_window	3	-1	41	97	0.0	1.0	0.0	0.010000000000000002	-1.0	0.0	0.0	-1.0	88.0	-1.0			238.90208983421326	0.6828441619873047
88	233.9424750804901	response	3	1	41						1.0			0.8557519912719727		0.0	k		239.5578908920288	
88	233.96951818466187	feedback_window	4	1	19	97	0.0	1.0	0.0	0.010000000000000002	1.0	0.0	0.0	0.8557519912719727	88.0	0.0			239.58493399620056	0.31673693656921387
88	234.28625512123108	ITI_window	5	1	48	97	0.0	1.0	0.0	0.010000000000000002	1.0	0.0	0.0	0.8557519912719727	88.0	0.0			239.90167093276978	0.7994310855865479
89	235.08568620681763	blockStart	0	-1	0	97	0.0	0.0	0.0	0.0	-1.0	0.0	0.0	-1.0	89.0	-1.0			240.70110201835632	0.00435185432434082
89	235.09003806114197	baseline_window	1	-1	30	97	0.0	0.0	0.0	0.0	-1.0	0.0	0.0	-1.0	89.0	-1.0			240.70545387268066	0.4966249465942383
89	235.5866630077362	stimulus_window	2	-1	12	97	0.0	0.0	0.0	0.0	-1.0	0.0	0.0	-1.0	89.0	-1.0			241.2020788192749	0.19896507263183594
89	235.78562808036804	response_window	3	-1	23	97	0.0	0.0	0.0	0.0	-1.0	0.0	0.0	-1.0	89.0	-1.0			241.40104389190674	0.38327908515930176
89	236.1415560245514	response	3	0	23						1.0			0.5548930168151855		0.0	s		241.7569718360901	
89	236.16890716552734	feedback_window	4	0	19	97	0.0	0.0	0.0	0.0	1.0	0.0	0.0	0.5548930168151855	89.0	0.0			241.78432297706604	0.31650805473327637
89	236.48541522026062	ITI_window	5	0	51	97	0.0	0.0	0.0	0.0	1.0	0.0	0.0	0.5548930168151855	89.0	0.0			242.10083103179932	0.8498859405517578
90	237.33530116081238	blockStart	0	-1	0	97	0.0	1.0	1.0	0.05	-1.0	0.0	0.0	-1.0	90.0	-1.0			242.95071697235107	0.004454851150512695
90	237.3397560119629	baseline_window	1	-1	30	97	0.0	1.0	1.0	0.05	-1.0	0.0	0.0	-1.0	90.0	-1.0			242.9551718235016	0.49535107612609863
90	237.835107088089	stimulus_window	2	-1	12	97	0.0	1.0	1.0	0.05	-1.0	0.0	0.0	-1.0	90.0	-1.0			243.45052289962769	0.199876070022583
90	238.03498315811157	response_window	3	-1	29	97	0.0	1.0	1.0	0.05	-1.0	0.0	0.0	-1.0	90.0	-1.0			243.65039896965027	0.48323988914489746
90	238.4911811351776	response	3	1	29						1.0			0.656074047088623		1.0	l		244.1065969467163	
90	238.51822304725647	feedback_window	4	1	19	97	0.0	1.0	1.0	0.05	1.0	0.0	0.0	0.656074047088623	90.0	1.0			244.13363885879517	0.3164961338043213
90	238.8347191810608	ITI_window	5	1	43	97	0.0	1.0	1.0	0.05	1.0	0.0	0.0	0.656074047088623	90.0	1.0			244.4501349925995	0.7161979675292969
91	239.5509171485901	blockStart	0	-1	0	97	0.0	0.0	0.0	0.0	-1.0	0.0	0.0	-1.0	91.0	-1.0			245.16633296012878	0.0038330554962158203
91	239.5547502040863	baseline_window	1	-1	29	97	0.0	0.0	0.0	0.0	-1.0	0.0	0.0	-1.0	91.0	-1.0			245.170166015625	0.4797170162200928
91	240.0344672203064	stimulus_window	2	-1	12	97	0.0	0.0	0.0	0.0	-1.0	0.0	0.0	-1.0	91.0	-1.0			245.6498830318451	0.19977092742919922
91	240.2342381477356	response_window	3	-1	31	97	0.0	0.0	0.0	0.0	-1.0	0.0	0.0	-1.0	91.0	-1.0			245.8496539592743	0.5166049003601074
91	240.72344422340393	response	3	0	31						1.0			0.6889770030975342		0.0	s		246.33886003494263	
91	240.7508430480957	feedback_window	4	0	19	97	0.0	0.0	0.0	0.0	1.0	0.0	0.0	0.6889770030975342	91.0	0.0			246.3662588596344	0.3165440559387207
91	241.06738710403442	ITI_window	5	0	47	97	0.0	0.0	0.0	0.0	1.0	0.0	0.0	0.6889770030975342	91.0	0.0			246.68280291557312	0.7826950550079346
92	241.85008215904236	blockStart	0	-1	0	97	0.0	0.0	1.0	0.0	-1.0	0.0	0.0	-1.0	92.0	-1.0			247.46549797058105	0.004081010818481445
92	241.85416316986084	baseline_window	1	-1	29	97	0.0	0.0	1.0	0.0	-1.0	0.0	0.0	-1.0	92.0	-1.0			247.46957898139954	0.4793410301208496
92	242.3335041999817	stimulus_window	2	-1	12	97	0.0	0.0	1.0	0.0	-1.0	0.0	0.0	-1.0	92.0	-1.0			247.94892001152039	0.19989681243896484
92	242.53340101242065	response_window	3	-1	28	97	0.0	0.0	1.0	0.0	-1.0	0.0	0.0	-1.0	92.0	-1.0			248.14881682395935	0.46663618087768555
92	242.97318315505981	response	3	0	28						1.0			0.639678955078125		1.0	a		248.5885989665985	
92	243.00003719329834	feedback_window	4	0	19	97	0.0	0.0	1.0	0.0	1.0	0.0	0.0		92.0	1.0		0.639678955078125	248.61545300483704	0.3166038990020752
92	243.31664109230042	ITI_window	5	0	40	97	0.0	0.0	1.0	0.0	1.0	0.0	0.0		92.0	1.0		0.639678955078125	248.9320569038391	0.6663289070129395
93	243.98296999931335	blockStart	0	-1	0	97	0.0	1.0	1.0	0.020000000000000004	-1.0	0.0	0.0	-1.0	93.0	-1.0			249.59838581085205	0.004357099533081055
93	243.98732709884644	baseline_window	1	-1	30	97	0.0	1.0	1.0	0.020000000000000004	-1.0	0.0	0.0	-1.0	93.0	-1.0			249.60274291038513	0.49566197395324707
93	244.48298907279968	stimulus_window	2	-1	12	97	0.0	1.0	1.0	0.020000000000000004	-1.0	0.0	0.0	-1.0	93.0	-1.0			250.09840488433838	0.1997671127319336
93	244.68275618553162	response_window	3	-1	47	97	0.0	1.0	1.0	0.020000000000000004	-1.0	0.0	0.0	-1.0	93.0	-1.0			250.2981719970703	0.7829058170318604
93	245.44039106369019	response	3	1	47						1.0			0.9574019908905029		1.0	l		251.05580687522888	
93	245.46566200256348	feedback_window	4	1	19	97	0.0	1.0	1.0	0.020000000000000004	1.0	0.0	0.0	0.9574019908905029	93.0	1.0			251.08107781410217	0.3168020248413086
93	245.78246402740479	ITI_window	5	1	38	97	0.0	1.0	1.0	0.020000000000000004	1.0	0.0	0.0	0.9574019908905029	93.0	1.0			251.39787983894348	0.6330680847167969
94	246.41553211212158	blockStart	0	-1	0	97	0.0	0.0	1.0	0.0	-1.0	0.0	0.0	-1.0	94.0	-1.0			252.03094792366028	0.0036330223083496094
94	246.41916513442993	baseline_window	1	-1	29	97	0.0	0.0	1.0	0.0	-1.0	0.0	0.0	-1.0	94.0	-1.0			252.03458094596863	0.47954607009887695
94	246.8987112045288	stimulus_window	2	-1	12	97	0.0	0.0	1.0	0.0	-1.0	0.0	0.0	-1.0	94.0	-1.0			252.5141270160675	0.20000886917114258
94	247.09872007369995	response_window	3	-1	35	97	0.0	0.0	1.0	0.0	-1.0	0.0	0.0	-1.0	94.0	-1.0			252.71413588523865	0.5828940868377686
94	247.6544451713562	response	3	0	35						1.0			0.7557339668273926		0.0	s		253.2698609828949	
94	247.68161416053772	feedback_window	4	0	19	97	0.0	0.0	1.0	0.0	1.0	0.0	0.0	0.7557339668273926	94.0	0.0			253.29702997207642	0.31662893295288086
94	247.9982430934906	ITI_window	5	0	48	97	0.0	0.0	1.0	0.0	1.0	0.0	0.0	0.7557339668273926	94.0	0.0			253.6136589050293	0.7998170852661133
95	248.7980601787567	blockStart	0	-1	0	97	0.0	0.0	1.0	0.0	-1.0	0.0	0.0	-1.0	95.0	-1.0			254.4134759902954	0.0047359466552734375
95	248.802796125412	baseline_window	1	-1	30	97	0.0	0.0	1.0	0.0	-1.0	0.0	0.0	-1.0	95.0	-1.0			254.41821193695068	0.49506592750549316
95	249.29786205291748	stimulus_window	2	-1	11	97	0.0	0.0	1.0	0.0	-1.0	0.0	0.0	-1.0	95.0	-1.0			254.91327786445618	0.19994211196899414
95	249.49780416488647	response_window	3	-1	33	97	0.0	0.0	1.0	0.0	-1.0	0.0	0.0	-1.0	95.0	-1.0			255.11321997642517	0.5499799251556396
95	250.0206060409546	response	3	0	33						1.0			0.7227439880371094		1.0	a		255.6360218524933	
95	250.04778409004211	feedback_window	4	0	19	97	0.0	0.0	1.0	0.0	1.0	0.0	0.0		95.0	1.0		0.7227439880371094	255.6631999015808	0.31650590896606445
95	250.36428999900818	ITI_window	5	0	37	97	0.0	0.0	1.0	0.0	1.0	0.0	0.0		95.0	1.0		0.7227439880371094	255.97970581054688	0.6165380477905273
96	250.9808280467987	blockStart	0	-1	0	97	0.0	1.0	0.0	0.020000000000000004	-1.0	0.0	0.0	-1.0	96.0	-1.0			256.5962438583374	0.0042531490325927734
96	250.9850811958313	baseline_window	1	-1	30	97	0.0	1.0	0.0	0.020000000000000004	-1.0	0.0	0.0	-1.0	96.0	-1.0			256.60049700737	0.49556779861450195
96	251.4806489944458	stimulus_window	2	-1	12	97	0.0	1.0	0.0	0.020000000000000004	-1.0	0.0	0.0	-1.0	96.0	-1.0			257.0960648059845	0.19984221458435059
96	251.68049120903015	response_window	3	-1	38	97	0.0	1.0	0.0	0.020000000000000004	-1.0	0.0	0.0	-1.0	96.0	-1.0			257.29590702056885	0.6328978538513184
96	252.2867431640625	response	3	1	38						1.0			0.8060941696166992		1.0	l		257.9021589756012	
96	252.31338906288147	feedback_window	4	1	19	97	0.0	1.0	0.0	0.020000000000000004	1.0	0.0	0.0	0.8060941696166992	96.0	1.0			257.92880487442017	0.31684398651123047
96	252.6302330493927	ITI_window	5	1	38	97	0.0	1.0	0.0	0.020000000000000004	1.0	0.0	0.0	0.8060941696166992	96.0	1.0			258.2456488609314	0.6330280303955078
97	253.2632610797882	blockStart	0	-1	0	97	0.0	1.0	1.0	0.015000000000000003	-1.0	0.0	0.0	-1.0	97.0	-1.0			258.8786768913269	0.0036101341247558594
97	253.26687121391296	baseline_window	1	-1	29	97	0.0	1.0	1.0	0.015000000000000003	-1.0	0.0	0.0	-1.0	97.0	-1.0			258.88228702545166	0.4795958995819092
97	253.74646711349487	stimulus_window	2	-1	12	97	0.0	1.0	1.0	0.015000000000000003	-1.0	0.0	0.0	-1.0	97.0	-1.0			259.36188292503357	0.19975590705871582
97	253.9462230205536	response_window	3	-1	32	97	0.0	1.0	1.0	0.015000000000000003	-1.0	0.0	0.0	-1.0	97.0	-1.0			259.5616388320923	0.5334641933441162
97	254.45179915428162	response	3	1	32						1.0			0.7053320407867432		0.0	k		260.0672149658203	
97	254.4796872138977	feedback_window	4	1	19	97	0.0	1.0	1.0	0.015000000000000003	1.0	0.0	0.0	0.7053320407867432	97.0	0.0			260.0951030254364	0.31651997566223145
97	254.79620718955994	ITI_window	5	1	52	97	0.0	1.0	1.0	0.015000000000000003	1.0	0.0	0.0	0.7053320407867432	97.0	0.0			260.41162300109863	0.8663179874420166
98	255.66252517700195	blockStart	0	-1	0	97	0.0	0.0	1.0	0.0	-1.0	0.0	0.0	-1.0	98.0	-1.0			261.27794098854065	0.004622936248779297
98	255.66714811325073	baseline_window	1	-1	29	97	0.0	0.0	1.0	0.0	-1.0	0.0	0.0	-1.0	98.0	-1.0			261.28256392478943	0.4784679412841797
98	256.1456160545349	stimulus_window	2	-1	12	97	0.0	0.0	1.0	0.0	-1.0	0.0	0.0	-1.0	98.0	-1.0			261.7610318660736	0.19997310638427734
98	256.3455891609192	response_window	3	-1	34	97	0.0	0.0	1.0	0.0	-1.0	0.0	0.0	-1.0	98.0	-1.0			261.9610049724579	0.5664939880371094
98	256.886999130249	response	3	0	34						1.0			0.7413830757141113		0.0	s		262.5024149417877	
98	256.9120831489563	feedback_window	4	0	19	97	0.0	0.0	1.0	0.0	1.0	0.0	0.0	0.7413830757141113	98.0	0.0			262.527498960495	0.3165619373321533
98	257.22864508628845	ITI_window	5	0	55	97	0.0	0.0	1.0	0.0	1.0	0.0	0.0	0.7413830757141113	98.0	0.0			262.84406089782715	0.916161060333252
99	258.1448061466217	blockStart	0	-1	0	97	0.0	0.0	0.0	0.0	-1.0	0.0	0.0	-1.0	99.0	-1.0			263.7602219581604	0.004411935806274414
99	258.149218082428	baseline_window	1	-1	29	97	0.0	0.0	0.0	0.0	-1.0	0.0	0.0	-1.0	99.0	-1.0			263.7646338939667	0.47901391983032227
99	258.6282320022583	stimulus_window	2	-1	12	97	0.0	0.0	0.0	0.0	-1.0	0.0	0.0	-1.0	99.0	-1.0			264.243647813797	0.19994211196899414
99	258.8281741142273	response_window	3	-1	40	97	0.0	0.0	0.0	0.0	-1.0	0.0	0.0	-1.0	99.0	-1.0			264.443589925766	0.6664509773254395
99	259.4670979976654	response	3	0	40						1.0			0.8388659954071045		0.0	s		265.0825138092041	
99	259.49462509155273	feedback_window	4	0	19	97	0.0	0.0	0.0	0.0	1.0	0.0	0.0	0.8388659954071045	99.0	0.0			265.11004090309143	0.31661391258239746
99	259.81123900413513	ITI_window	5	0	58	97	0.0	0.0	0.0	0.0	1.0	0.0	0.0	0.8388659954071045	99.0	0.0			265.4266548156738	0.9661290645599365
100	260.77736806869507	blockStart	0	-1	378	97	0.0	1.0	0.0	0.025000000000000005	-1.0	1.0	0.0	-1.0	100.0	-1.0			266.39278388023376	6.298135995864868
100	267.07550406455994	baseline_window	1	-1	151	97	0.0	1.0	0.0	0.025000000000000005	-1.0	1.0	0.0	-1.0	100.0	-1.0			272.69091987609863	2.515903949737549
100	269.5914080142975	stimulus_window	2	-1	12	97	0.0	1.0	0.0	0.025000000000000005	-1.0	1.0	0.0	-1.0	100.0	-1.0			275.2068238258362	0.19981718063354492
100	269.79122519493103	response_window	3	-1	25	97	0.0	1.0	0.0	0.025000000000000005	-1.0	1.0	0.0	-1.0	100.0	-1.0			275.4066410064697	0.41648101806640625
100	270.1799671649933	response	3	1	25						1.0			0.5885591506958008		1.0	l		275.795382976532	
100	270.20770621299744	feedback_window	4	1	19	97	0.0	1.0	0.0	0.025000000000000005	1.0	1.0	0.0	0.5885591506958008	100.0	1.0			275.82312202453613	0.3166368007659912
100	270.5243430137634	ITI_window	5	1	39	97	0.0	1.0	0.0	0.025000000000000005	1.0	1.0	0.0	0.5885591506958008	100.0	1.0			276.1397588253021	0.6494951248168945
101	271.1738381385803	blockStart	0	-1	0	97	0.0	0.0	1.0	0.0	-1.0	1.0	0.0	-1.0	101.0	-1.0			276.789253950119	0.004342079162597656
101	271.1781802177429	baseline_window	1	-1	29	97	0.0	0.0	1.0	0.0	-1.0	1.0	0.0	-1.0	101.0	-1.0			276.7935960292816	0.4790949821472168
101	271.65727519989014	stimulus_window	2	-1	12	97	0.0	0.0	1.0	0.0	-1.0	1.0	0.0	-1.0	101.0	-1.0			277.27269101142883	0.19997286796569824
101	271.85724806785583	response_window	3	-1	72	97	0.0	0.0	1.0	0.0	-1.0	1.0	0.0	-1.0	101.0	-1.0			277.47266387939453	1.1994249820709229
101	273.05667304992676	feedback_window	4	-1	18	97	0.0	0.0	1.0	0.0	-1.0	1.0	0.0	-1.0	101.0	-1.0			278.67208886146545	0.30002617835998535
101	273.35669922828674	ITI_window	5	-1	50	97	0.0	0.0	1.0	0.0	-1.0	1.0	0.0	-1.0	101.0	-1.0			278.97211503982544	0.8328859806060791
102	274.1895852088928	blockStart	0	-1	0	97	0.0	1.0	1.0	0.045000000000000005	-1.0	1.0	0.0	-1.0	102.0	-1.0			279.8050010204315	0.004402875900268555
102	274.1939880847931	baseline_window	1	-1	30	97	0.0	1.0	1.0	0.045000000000000005	-1.0	1.0	0.0	-1.0	102.0	-1.0			279.8094038963318	0.49550700187683105
102	274.6894950866699	stimulus_window	2	-1	12	97	0.0	1.0	1.0	0.045000000000000005	-1.0	1.0	0.0	-1.0	102.0	-1.0			280.3049108982086	0.19989991188049316
102	274.8893949985504	response_window	3	-1	22	97	0.0	1.0	1.0	0.045000000000000005	-1.0	1.0	0.0	-1.0	102.0	-1.0			280.5048108100891	0.3666400909423828
102	275.22884011268616	response	3	1	22						1.0			0.5393450260162354		1.0	l		280.84425592422485	
102	275.2560350894928	feedback_window	4	1	19	97	0.0	1.0	1.0	0.045000000000000005	1.0	1.0	0.0	0.5393450260162354	102.0	1.0			280.8714509010315	0.3166990280151367
102	275.57273411750793	ITI_window	5	1	45	97	0.0	1.0	1.0	0.045000000000000005	1.0	1.0	0.0	0.5393450260162354	102.0	1.0			281.18814992904663	0.7495849132537842
103	276.3223190307617	blockStart	0	-1	0	97	0.0	1.0	1.0	0.030000000000000006	-1.0	1.0	0.0	-1.0	103.0	-1.0			281.9377348423004	0.0037009716033935547
103	276.3260200023651	baseline_window	1	-1	29	97	0.0	1.0	1.0	0.030000000000000006	-1.0	1.0	0.0	-1.0	103.0	-1.0			281.9414358139038	0.4793131351470947
103	276.8053331375122	stimulus_window	2	-1	12	97	0.0	1.0	1.0	0.030000000000000006	-1.0	1.0	0.0	-1.0	103.0	-1.0			282.4207489490509	0.19996190071105957
103	277.00529503822327	response_window	3	-1	24	97	0.0	1.0	1.0	0.030000000000000006	-1.0	1.0	0.0	-1.0	103.0	-1.0			282.62071084976196	0.40000295639038086
103	277.3782410621643	response	3	1	24						1.0			0.5729079246520996		1.0	l		282.993656873703	
103	277.40529799461365	feedback_window	4	1	19	97	0.0	1.0	1.0	0.030000000000000006	1.0	1.0	0.0	0.5729079246520996	103.0	1.0			283.02071380615234	0.3830602169036865
103	277.78835821151733	ITI_window	5	1	46	97	0.0	1.0	1.0	0.030000000000000006	1.0	1.0	0.0	0.5729079246520996	103.0	1.0			283.40377402305603	0.7664167881011963
104	278.55477499961853	blockStart	0	-1	0	97	0.0	0.0	0.0	0.0	-1.0	1.0	0.0	-1.0	104.0	-1.0			284.1701908111572	0.004880189895629883
104	278.55965518951416	baseline_window	1	-1	29	97	0.0	0.0	0.0	0.0	-1.0	1.0	0.0	-1.0	104.0	-1.0			284.17507100105286	0.4784088134765625
104	279.0380640029907	stimulus_window	2	-1	12	97	0.0	0.0	0.0	0.0	-1.0	1.0	0.0	-1.0	104.0	-1.0			284.6534798145294	0.19995617866516113
104	279.2380201816559	response_window	3	-1	55	97	0.0	0.0	0.0	0.0	-1.0	1.0	0.0	-1.0	104.0	-1.0			284.8534359931946	0.9162089824676514
104	280.1295790672302	response	3	1	55						0.0			1.091515064239502		0.0	k		285.7449948787689	
104	280.15422916412354	feedback_window	4	1	19	97	0.0	0.0	0.0	0.0	0.0	1.0	0.0	1.091515064239502	104.0	0.0			285.76964497566223	0.31686902046203613
104	280.47109818458557	ITI_window	5	1	41	97	0.0	0.0	0.0	0.0	0.0	1.0	0.0	1.091515064239502	104.0	0.0			286.08651399612427	0.6828558444976807
105	281.15395402908325	blockStart	0	-1	0	97	0.0	1.0	0.0	0.030000000000000006	-1.0	1.0	0.0	-1.0	105.0	-1.0			286.76936984062195	0.003957033157348633
105	281.1579110622406	baseline_window	1	-1	29	97	0.0	1.0	0.0	0.030000000000000006	-1.0	1.0	0.0	-1.0	105.0	-1.0			286.7733268737793	0.4792959690093994
105	281.63720703125	stimulus_window	2	-1	12	97	0.0	1.0	0.0	0.030000000000000006	-1.0	1.0	0.0	-1.0	105.0	-1.0			287.2526228427887	0.20009517669677734
105	281.8373022079468	response_window	3	-1	33	97	0.0	1.0	0.0	0.030000000000000006	-1.0	1.0	0.0	-1.0	105.0	-1.0			287.4527180194855	0.5497949123382568
105	282.3592290878296	response	3	1	33						1.0			0.7220220565795898		0.0	k		287.9746448993683	
105	282.38709712028503	feedback_window	4	1	19	97	0.0	1.0	0.0	0.030000000000000006	1.0	1.0	0.0	0.7220220565795898	105.0	0.0			288.00251293182373	0.316586971282959
105	282.703684091568	ITI_window	5	1	41	97	0.0	1.0	0.0	0.030000000000000006	1.0	1.0	0.0	0.7220220565795898	105.0	0.0			288.3190999031067	0.6829419136047363
106	283.38662600517273	blockStart	0	-1	0	97	0.0	1.0	1.0	0.015000000000000003	-1.0	1.0	0.0	-1.0	106.0	-1.0			289.0020418167114	0.003982067108154297
106	283.3906080722809	baseline_window	1	-1	30	97	0.0	1.0	1.0	0.015000000000000003	-1.0	1.0	0.0	-1.0	106.0	-1.0			289.0060238838196	0.4959530830383301
106	283.8865611553192	stimulus_window	2	-1	12	97	0.0	1.0	1.0	0.015000000000000003	-1.0	1.0	0.0	-1.0	106.0	-1.0			289.5019769668579	0.19992995262145996
106	284.0864911079407	response_window	3	-1	27	97	0.0	1.0	1.0	0.015000000000000003	-1.0	1.0	0.0	-1.0	106.0	-1.0			289.70190691947937	0.4498159885406494
106	284.508935213089	response	3	1	27						1.0			0.6223740577697754		0.0	k		290.1243510246277	
106	284.5363070964813	feedback_window	4	1	19	97	0.0	1.0	1.0	0.015000000000000003	1.0	1.0	0.0	0.6223740577697754	106.0	0.0			290.15172290802	0.3165271282196045
106	284.8528342247009	ITI_window	5	1	53	97	0.0	1.0	1.0	0.015000000000000003	1.0	1.0	0.0	0.6223740577697754	106.0	0.0			290.4682500362396	0.8828017711639404
107	285.73563599586487	blockStart	0	-1	0	97	0.0	1.0	0.0	0.04	-1.0	1.0	0.0	-1.0	107.0	-1.0			291.35105180740356	0.003917217254638672
107	285.7395532131195	baseline_window	1	-1	30	97	0.0	1.0	0.0	0.04	-1.0	1.0	0.0	-1.0	107.0	-1.0			291.3549690246582	0.4961369037628174
107	286.2356901168823	stimulus_window	2	-1	12	97	0.0	1.0	0.0	0.04	-1.0	1.0	0.0	-1.0	107.0	-1.0			291.851105928421	0.20003604888916016
